Subj_idx,Stimulus,Response,Confidence,RT_decConf,NoiseLevel_Deg,Trial,Accuracy,WedgeClicked,MouseClick_x,MouseClick_y,FlippedWheel,AQ,Age,Sex
1,2,2,3,1.0224,35,1,1,6,1142,510,0,15,19,1
1,1,1,4,0.63935,45,2,1,4,770,387,0,15,19,1
1,1,1,3,1.2174,90,3,1,3,805,493,0,15,19,1
1,1,2,2,1.4424,90,4,0,7,1177,609,0,15,19,1
1,2,2,3,0.65201,45,5,1,6,1131,510,0,15,19,1
1,1,1,4,0.66295,45,6,1,4,796,393,0,15,19,1
1,1,2,1,0.98633,90,7,0,8,1103,706,0,15,19,1
1,2,2,2,1.4927,80,8,1,7,1180,633,0,15,19,1
1,1,1,3,1.1171,70,9,1,3,779,520,0,15,19,1
1,2,2,3,0.69645,100,10,1,6,1217,497,0,15,19,1
1,2,2,4,0.70022,0,11,1,5,1091,411,0,15,19,1
1,1,1,4,1.227,60,12,1,4,806,383,0,15,19,1
1,1,2,2,0.89222,100,13,0,7,1162,605,0,15,19,1
1,2,2,4,0.47952,0,14,1,5,1120,368,0,15,19,1
1,2,1,3,0.89892,60,15,0,3,750,499,0,15,19,1
1,1,2,2,1.5389,90,16,0,7,1132,607,0,15,19,1
1,1,1,1,0.83922,90,17,1,1,835,729,0,15,19,1
1,1,2,1,0.81594,80,18,0,8,1079,675,0,15,19,1
1,1,1,3,0.66925,80,19,1,3,808,513,0,15,19,1
1,1,2,2,0.8757,90,20,0,7,1179,605,0,15,19,1
1,1,1,3,1.0021,100,21,1,3,772,504,0,15,19,1
1,2,2,3,1.1761,80,22,1,6,1168,521,0,15,19,1
1,1,1,3,0.79214,100,23,1,3,758,520,0,15,19,1
1,1,1,2,0.88681,70,24,1,2,853,574,0,15,19,1
1,2,2,2,0.69749,70,25,1,7,1145,621,0,15,19,1
1,2,1,3,1.0576,70,26,0,3,812,524,0,15,19,1
1,2,2,4,0.47457,0,27,1,5,1114,423,0,15,19,1
1,2,1,3,1.6136,80,28,0,3,858,519,0,15,19,1
1,1,1,4,0.52427,0,29,1,4,852,434,0,15,19,1
1,1,2,2,1.7396,45,30,0,7,1205,654,0,15,19,1
1,1,1,2,0.75699,45,31,1,2,788,628,0,15,19,1
1,2,2,2,0.67674,90,32,1,7,1134,611,0,15,19,1
1,1,1,3,0.9612,90,33,1,3,786,535,0,15,19,1
1,1,1,4,0.5987,0,34,1,4,824,379,0,15,19,1
1,2,2,4,0.66082,45,35,1,5,1131,384,0,15,19,1
1,2,2,3,0.8708,60,36,1,6,1166,497,0,15,19,1
1,1,1,4,0.5093,0,37,1,4,839,392,0,15,19,1
1,1,1,4,0.6272,0,38,1,4,865,390,0,15,19,1
1,1,2,2,0.79221,70,39,0,7,1198,630,0,15,19,1
1,2,2,2,0.88159,60,40,1,7,1077,597,0,15,19,1
1,2,1,2,0.70259,80,41,0,2,713,620,0,15,19,1
1,2,2,2,0.7365,80,42,1,7,1235,626,0,15,19,1
1,1,1,4,0.79339,45,43,1,4,775,399,0,15,19,1
1,1,1,4,0.37573,0,44,1,4,877,428,0,15,19,1
1,2,2,4,0.73273,35,45,1,5,1129,399,0,15,19,1
1,2,1,3,0.83743,100,46,0,3,727,485,0,15,19,1
1,2,2,2,0.9604,80,47,1,7,1107,586,0,15,19,1
1,1,1,3,0.58908,60,48,1,3,741,516,0,15,19,1
1,1,2,2,2.1515,90,49,0,7,1205,568,0,15,19,1
1,2,2,3,0.97288,60,50,1,6,1123,509,0,15,19,1
1,2,2,4,0.55092,0,51,1,5,1079,430,0,15,19,1
1,1,1,3,0.63138,60,52,1,3,739,519,0,15,19,1
1,2,2,3,1.2852,100,53,1,6,1130,528,0,15,19,1
1,1,1,3,0.76871,35,54,1,3,750,491,0,15,19,1
1,2,2,3,0.80004,70,55,1,6,1204,507,0,15,19,1
1,2,2,4,0.60134,0,56,1,5,1081,400,0,15,19,1
1,2,2,3,1.4745,35,57,1,6,1132,517,0,15,19,1
1,1,1,4,0.48155,35,58,1,4,805,378,0,15,19,1
1,2,2,3,0.7475,70,59,1,6,1205,497,0,15,19,1
1,1,1,4,0.85839,0,60,1,4,761,372,0,15,19,1
1,1,1,2,1.1662,90,61,1,2,793,617,0,15,19,1
1,1,2,2,0.81984,80,62,0,7,1140,608,0,15,19,1
1,2,2,1,1.3173,80,63,1,8,1073,662,0,15,19,1
1,2,1,2,0.89791,80,64,0,2,789,590,0,15,19,1
1,2,2,1,1.603,60,65,1,8,1108,679,0,15,19,1
1,2,1,1,1.496,100,66,0,1,818,759,0,15,19,1
1,1,2,1,2.4176,80,67,0,8,1135,753,0,15,19,1
1,2,1,2,1.286,90,68,0,2,750,616,0,15,19,1
1,2,2,3,1.2608,70,69,1,6,1196,523,0,15,19,1
1,2,1,2,1.2228,100,70,0,2,747,607,0,15,19,1
1,2,2,3,0.54281,45,71,1,6,1170,523,0,15,19,1
1,2,2,3,2.1073,45,72,1,6,1202,524,0,15,19,1
1,1,1,2,1.9801,90,73,1,2,677,590,0,15,19,1
1,2,2,4,0.54702,0,74,1,5,1127,394,0,15,19,1
1,2,1,3,1.1725,70,75,0,3,745,474,0,15,19,1
1,2,2,3,0.49268,35,76,1,6,1214,504,0,15,19,1
1,1,1,4,0.44295,0,77,1,4,769,370,0,15,19,1
1,1,1,4,0.6495,0,78,1,4,842,416,0,15,19,1
1,1,1,3,0.91585,45,79,1,3,797,510,0,15,19,1
1,2,2,4,0.46309,0,80,1,5,1109,371,0,15,19,1
1,2,2,3,0.98388,60,81,1,6,1144,496,0,15,19,1
1,2,2,4,0.56287,0,82,1,5,1080,444,0,15,19,1
1,1,1,2,1.3255,100,83,1,2,697,598,0,15,19,1
1,2,2,3,1.0427,35,84,1,6,1233,450,0,15,19,1
1,2,1,2,1.0054,80,85,0,2,720,597,0,15,19,1
1,2,2,2,2.2903,45,86,1,7,1184,638,0,15,19,1
1,1,1,4,0.60038,0,87,1,4,806,387,0,15,19,1
1,2,2,1,1.7408,70,88,1,8,1112,723,0,15,19,1
1,1,1,3,1.1902,70,89,1,3,722,480,0,15,19,1
1,1,2,2,0.86785,70,90,0,7,1148,598,0,15,19,1
1,1,1,2,1.0423,45,91,1,2,716,640,0,15,19,1
1,2,2,3,1.5667,70,92,1,6,1204,524,0,15,19,1
1,2,2,2,2.4669,70,93,1,7,1105,585,0,15,19,1
1,2,2,4,1.0323,35,94,1,5,1129,399,0,15,19,1
1,2,1,2,1.4201,45,95,0,2,792,596,0,15,19,1
1,1,2,1,0.90871,90,96,0,8,1113,667,0,15,19,1
1,2,2,2,0.95551,90,97,1,7,1073,595,0,15,19,1
1,2,2,1,1.1623,90,98,1,8,1066,656,0,15,19,1
1,1,1,2,2.5172,60,99,1,2,795,606,0,15,19,1
1,1,1,1,1.7521,80,100,1,4,833,425,1,15,19,1
1,2,2,3,1.2232,70,101,1,7,1198,646,1,15,19,1
1,2,2,3,1.6842,35,102,1,7,1142,619,1,15,19,1
1,1,2,1,1.4646,90,103,0,5,1132,403,1,15,19,1
1,2,2,2,4.7097,80,104,1,6,1172,501,1,15,19,1
1,2,2,3,1.1253,70,105,1,7,1193,584,1,15,19,1
1,2,1,3,0.86596,90,106,0,2,732,611,1,15,19,1
1,1,1,4,0.62866,0,107,1,1,839,693,1,15,19,1
1,2,2,3,0.84074,70,108,1,7,1216,581,1,15,19,1
1,2,2,2,1.9142,80,109,1,6,1156,462,1,15,19,1
1,2,2,4,0.73287,0,110,1,8,1098,689,1,15,19,1
1,2,1,2,1.1905,60,111,0,3,753,509,1,15,19,1
1,2,2,3,1.491,35,112,1,7,1210,630,1,15,19,1
1,1,1,3,1.1496,100,113,1,2,753,606,1,15,19,1
1,1,1,4,1.5035,45,114,1,1,799,725,1,15,19,1
1,1,1,4,0.68062,35,115,1,1,825,688,1,15,19,1
1,2,2,4,0.46032,0,116,1,8,1140,729,1,15,19,1
1,1,1,2,0.89138,70,117,1,3,766,493,1,15,19,1
1,2,2,2,2.5016,100,118,1,6,1168,494,1,15,19,1
1,2,2,4,0.75583,35,119,1,8,1096,672,1,15,19,1
1,1,1,3,0.80288,90,120,1,2,748,588,1,15,19,1
1,2,2,4,0.859,35,121,1,8,1156,673,1,15,19,1
1,1,1,4,0.61655,80,122,1,1,780,728,1,15,19,1
1,1,1,4,0.67836,35,123,1,1,851,683,1,15,19,1
1,2,2,4,0.54628,60,124,1,8,1143,757,1,15,19,1
1,1,1,4,0.75467,80,125,1,1,770,735,1,15,19,1
1,2,2,4,0.52698,100,126,1,8,1103,697,1,15,19,1
1,2,1,3,0.64511,70,127,0,2,713,627,1,15,19,1
1,1,1,4,0.87919,35,128,1,1,821,696,1,15,19,1
1,1,2,3,1.4078,90,129,0,7,1226,631,1,15,19,1
1,1,1,4,0.91859,60,130,1,1,762,730,1,15,19,1
1,1,2,4,0.62326,100,131,0,8,1101,728,1,15,19,1
1,1,1,4,0.73228,35,132,1,1,795,728,1,15,19,1
1,1,2,4,0.65506,60,133,0,8,1125,641,1,15,19,1
1,1,1,4,0.94726,35,134,1,1,757,738,1,15,19,1
1,1,2,3,0.77636,100,135,0,7,1207,634,1,15,19,1
1,2,1,3,1.0964,100,136,0,2,762,636,1,15,19,1
1,2,2,4,0.40004,0,137,1,8,1122,745,1,15,19,1
1,1,1,3,1.2013,60,138,1,2,767,608,1,15,19,1
1,2,2,3,0.63013,80,139,1,7,1167,642,1,15,19,1
1,1,1,3,0.83908,60,140,1,2,795,579,1,15,19,1
1,2,2,3,0.67549,90,141,1,7,1160,632,1,15,19,1
1,1,1,3,0.70757,100,142,1,2,760,610,1,15,19,1
1,2,2,3,0.39649,90,143,1,7,1177,636,1,15,19,1
1,2,2,3,0.55707,35,144,1,7,1162,612,1,15,19,1
1,1,1,3,0.40001,60,145,1,2,735,601,1,15,19,1
1,1,1,3,0.95207,45,146,1,2,832,600,1,15,19,1
1,1,2,3,0.46102,100,147,0,7,1146,620,1,15,19,1
1,2,2,4,1.0447,0,148,1,8,1111,702,1,15,19,1
1,1,1,4,1.5463,60,149,1,1,771,735,1,15,19,1
1,2,2,3,0.5577,60,150,1,7,1110,604,1,15,19,1
1,1,1,3,0.65239,100,151,1,2,740,626,1,15,19,1
1,2,2,3,0.33348,80,152,1,7,1215,627,1,15,19,1
1,1,1,3,0.45928,60,153,1,2,745,634,1,15,19,1
1,1,2,3,0.44619,90,154,0,7,1183,626,1,15,19,1
1,2,1,2,1.0376,80,155,0,3,772,500,1,15,19,1
1,1,2,1,0.78738,80,156,0,5,1140,422,1,15,19,1
1,2,2,2,1.0252,60,157,1,6,1217,502,1,15,19,1
1,2,2,3,0.65731,70,158,1,7,1099,596,1,15,19,1
1,1,2,3,1.1793,60,159,0,7,1141,611,1,15,19,1
1,1,2,3,0.89137,100,160,0,7,1101,548,1,15,19,1
1,2,1,1,0.83286,60,161,0,4,872,456,1,15,19,1
1,2,2,3,1.3277,90,162,1,7,1180,603,1,15,19,1
1,2,2,3,1.5387,70,163,1,7,1095,587,1,15,19,1
1,2,2,2,1.3344,70,164,1,6,1136,483,1,15,19,1
1,1,1,2,1.4004,70,165,1,3,760,503,1,15,19,1
1,1,1,1,0.80751,45,166,1,4,885,449,1,15,19,1
1,1,1,2,1.0813,60,167,1,3,742,496,1,15,19,1
1,2,2,2,1.2749,35,168,1,6,1147,513,1,15,19,1
1,2,2,1,1.7262,60,169,1,5,1120,365,1,15,19,1
1,2,2,2,2.7372,45,170,1,6,1185,492,1,15,19,1
1,1,1,3,3.718,0,171,1,2,763,586,1,15,19,1
1,1,2,1,2.0237,80,172,0,5,1080,442,1,15,19,1
1,2,2,3,1.6288,60,173,1,7,1128,567,1,15,19,1
1,1,2,1,1.0399,70,174,0,5,1119,406,1,15,19,1
1,1,2,2,0.8115,80,175,0,6,1120,524,1,15,19,1
1,1,2,1,1.1131,70,176,0,5,1127,363,1,15,19,1
1,2,2,3,0.77694,70,177,1,7,1130,564,1,15,19,1
1,2,2,3,1.1603,90,178,1,7,1123,594,1,15,19,1
1,2,2,2,0.8651,90,179,1,6,1080,493,1,15,19,1
1,1,1,4,1.0533,0,180,1,1,775,742,1,15,19,1
1,1,2,2,2.7978,60,181,0,6,1180,502,1,15,19,1
1,1,2,2,1.0838,70,182,0,6,1116,506,1,15,19,1
1,1,1,4,0.75554,0,183,1,1,815,731,1,15,19,1
1,1,1,1,1.9425,35,184,1,4,835,405,1,15,19,1
1,1,1,1,0.73496,60,185,1,4,864,431,1,15,19,1
1,1,1,2,2.5927,90,186,1,3,810,516,1,15,19,1
1,2,1,1,2.7413,80,187,0,4,813,377,1,15,19,1
1,1,1,1,1.5866,70,188,1,4,821,371,1,15,19,1
1,1,1,4,0.62052,0,189,1,1,818,689,1,15,19,1
1,2,2,4,0.49314,0,190,1,8,1054,640,1,15,19,1
1,2,2,3,0.59857,35,191,1,7,1102,575,1,15,19,1
1,1,2,3,1.5536,70,192,0,7,1157,592,1,15,19,1
1,2,2,2,1.3519,35,193,1,6,1167,516,1,15,19,1
1,2,1,2,0.88794,100,194,0,3,794,512,1,15,19,1
1,2,2,4,0.39784,0,195,1,8,1102,721,1,15,19,1
1,2,1,2,1.183,80,196,0,3,769,511,1,15,19,1
1,2,2,2,1.4157,60,197,1,6,1117,515,1,15,19,1
1,2,2,4,0.44036,35,198,1,8,1094,681,1,15,19,1
1,1,1,4,0.48163,35,199,1,1,809,725,1,15,19,1
1,1,2,1,2.8582,45,200,0,8,1140,708,0,15,19,1
1,2,2,3,0.62214,45,201,1,6,1175,520,0,15,19,1
1,1,1,3,0.38034,70,202,1,3,763,520,0,15,19,1
1,2,2,3,0.62437,70,203,1,6,1248,513,0,15,19,1
1,2,1,3,0.65854,100,204,0,3,748,490,0,15,19,1
1,1,1,3,0.75851,70,205,1,3,795,498,0,15,19,1
1,2,2,3,0.48418,45,206,1,6,1220,495,0,15,19,1
1,1,1,4,0.30788,35,207,1,4,829,411,0,15,19,1
1,1,1,4,0.67585,45,208,1,4,855,435,0,15,19,1
1,1,2,3,1.7539,70,209,0,6,1176,504,0,15,19,1
1,2,1,1,1.9546,90,210,0,1,864,650,0,15,19,1
1,1,1,4,0.53602,35,211,1,4,863,413,0,15,19,1
1,2,2,3,0.88074,80,212,1,6,1100,531,0,15,19,1
1,1,1,3,3.1534,60,213,1,3,828,515,0,15,19,1
1,2,2,3,0.79181,80,214,1,6,1175,504,0,15,19,1
1,2,2,4,0.6732,0,215,1,5,1072,419,0,15,19,1
1,1,1,4,0.61825,0,216,1,4,829,425,0,15,19,1
1,1,1,4,0.54789,35,217,1,4,897,463,0,15,19,1
1,1,1,1,1.6599,45,218,1,1,829,734,0,15,19,1
1,2,2,4,0.90195,80,219,1,5,1046,481,0,15,19,1
1,2,2,3,1.976,100,220,1,6,1124,505,0,15,19,1
1,2,2,3,0.56936,60,221,1,6,1015,524,0,15,19,1
1,1,1,4,0.4058,45,222,1,4,834,440,0,15,19,1
1,2,2,2,0.93947,90,223,1,7,1171,624,0,15,19,1
1,1,1,3,0.7071,80,224,1,3,793,524,0,15,19,1
1,1,2,3,0.8338,70,225,0,6,1173,533,0,15,19,1
1,2,2,3,0.62056,100,226,1,6,1083,500,0,15,19,1
1,2,2,4,1.0292,35,227,1,5,1126,406,0,15,19,1
1,2,2,3,0.59327,60,228,1,6,1100,510,0,15,19,1
1,1,1,3,0.77172,100,229,1,3,741,492,0,15,19,1
1,1,1,3,4.0383,100,230,1,3,773,511,0,15,19,1
1,1,1,3,0.52704,70,231,1,3,845,520,0,15,19,1
1,1,1,3,0.43306,100,232,1,3,783,494,0,15,19,1
1,1,2,3,0.56373,80,233,0,6,1198,504,0,15,19,1
1,1,1,3,0.50851,70,234,1,3,733,480,0,15,19,1
1,1,2,3,0.73912,100,235,0,6,1225,481,0,15,19,1
1,1,1,3,0.42748,80,236,1,3,729,492,0,15,19,1
1,1,1,3,0.64554,80,237,1,3,816,525,0,15,19,1
1,1,1,3,0.58591,35,238,1,3,715,509,0,15,19,1
1,1,2,3,0.85557,100,239,0,6,1217,522,0,15,19,1
1,2,2,3,0.5983,60,240,1,6,1186,505,0,15,19,1
1,2,2,3,1.2643,0,241,1,6,1227,481,0,15,19,1
1,2,2,4,0.66101,35,242,1,5,1100,393,0,15,19,1
1,2,1,3,0.70474,60,243,0,3,805,519,0,15,19,1
1,2,2,3,0.40311,45,244,1,6,1176,519,0,15,19,1
1,1,1,2,0.55908,100,245,1,2,749,593,0,15,19,1
1,2,2,2,0.76977,100,246,1,7,1162,613,0,15,19,1
1,2,2,1,0.81916,70,247,1,8,1023,619,0,15,19,1
1,2,1,1,0.74157,80,248,0,1,854,664,0,15,19,1
1,1,1,4,0.55489,35,249,1,4,827,381,0,15,19,1
1,2,2,3,1.0619,45,250,1,6,1163,506,0,15,19,1
1,2,2,4,0.48864,0,251,1,5,1086,418,0,15,19,1
1,1,1,3,1.4774,70,252,1,3,781,480,0,15,19,1
1,1,1,3,0.64136,35,253,1,3,820,526,0,15,19,1
1,2,2,2,0.93277,35,254,1,7,1117,584,0,15,19,1
1,1,1,3,0.90043,35,255,1,3,763,501,0,15,19,1
1,2,2,3,1.1844,35,256,1,6,1216,511,0,15,19,1
1,2,1,2,1.1412,90,257,0,2,740,625,0,15,19,1
1,1,1,3,0.6515,45,258,1,3,833,515,0,15,19,1
1,1,1,3,0.73854,80,259,1,3,797,505,0,15,19,1
1,1,1,4,0.5153,0,260,1,4,857,418,0,15,19,1
1,2,2,4,2.2517,0,261,1,5,1085,427,0,15,19,1
1,1,1,3,0.61097,60,262,1,3,762,517,0,15,19,1
1,1,1,4,0.52481,0,263,1,4,820,438,0,15,19,1
1,1,1,4,0.57485,35,264,1,4,788,415,0,15,19,1
1,1,1,4,0.53885,0,265,1,4,871,482,0,15,19,1
1,1,1,3,0.76832,45,266,1,3,709,505,0,15,19,1
1,2,2,1,1.5215,60,267,1,8,1145,719,0,15,19,1
1,2,1,1,1.0362,90,268,0,1,839,722,0,15,19,1
1,1,1,1,0.67501,70,269,1,1,880,644,0,15,19,1
1,1,1,2,0.77636,60,270,1,2,778,633,0,15,19,1
1,1,2,2,0.67437,100,271,0,7,1123,586,0,15,19,1
1,1,2,1,0.66371,80,272,0,8,1043,637,0,15,19,1
1,2,2,4,0.51936,0,273,1,5,1106,407,0,15,19,1
1,2,1,1,0.86273,100,274,0,1,838,696,0,15,19,1
1,1,1,3,0.53368,35,275,1,3,770,506,0,15,19,1
1,1,1,2,0.77843,90,276,1,2,754,625,0,15,19,1
1,1,1,3,0.59049,70,277,1,3,841,536,0,15,19,1
1,2,1,2,1.4672,70,278,0,2,800,586,0,15,19,1
1,2,2,4,1.9062,0,279,1,5,1113,409,0,15,19,1
1,2,1,2,0.71486,100,280,0,2,807,591,0,15,19,1
1,1,2,1,1.0953,60,281,0,8,1045,652,0,15,19,1
1,2,2,1,1.0989,45,282,1,8,1070,654,0,15,19,1
1,2,1,1,1.4229,100,283,0,1,876,644,0,15,19,1
1,2,1,2,0.85037,90,284,0,2,807,596,0,15,19,1
1,2,2,1,0.80634,60,285,1,8,1118,678,0,15,19,1
1,1,1,1,0.69002,100,286,1,1,795,723,0,15,19,1
1,2,1,2,0.92252,70,287,0,2,793,582,0,15,19,1
1,1,1,1,2.3438,100,288,1,1,806,683,0,15,19,1
1,1,2,2,1.1112,90,289,0,7,1113,612,0,15,19,1
1,2,2,3,0.74591,35,290,1,6,1158,496,0,15,19,1
1,1,1,4,0.48132,0,291,1,4,890,431,0,15,19,1
1,2,1,2,0.87591,60,292,0,2,727,605,0,15,19,1
1,2,1,2,0.73798,45,293,0,2,844,565,0,15,19,1
1,1,1,3,0.605,90,294,1,3,840,510,0,15,19,1
1,1,1,3,0.70299,35,295,1,3,719,490,0,15,19,1
1,2,1,2,0.98536,100,296,0,2,795,591,0,15,19,1
1,1,1,3,1.6891,35,297,1,3,739,482,0,15,19,1
1,1,2,2,1.0378,80,298,0,7,1109,595,0,15,19,1
1,2,2,1,1.3755,80,299,1,8,1027,629,0,15,19,1
1,2,2,3,1.4035,35,300,1,7,1170,629,1,15,19,1
1,1,1,3,0.8568,80,301,1,2,760,592,1,15,19,1
1,2,2,2,1.3565,100,302,1,6,1146,505,1,15,19,1
1,1,1,2,0.76253,90,303,1,3,744,511,1,15,19,1
1,2,2,4,0.62614,35,304,1,8,1123,713,1,15,19,1
1,2,1,1,0.74615,80,305,0,4,759,352,1,15,19,1
1,2,1,2,0.76963,80,306,0,3,779,499,1,15,19,1
1,2,2,2,0.80131,90,307,1,6,1165,467,1,15,19,1
1,1,1,2,1.3633,80,308,1,3,764,494,1,15,19,1
1,1,1,4,0.83385,0,309,1,1,850,690,1,15,19,1
1,1,1,3,0.61306,35,310,1,2,778,593,1,15,19,1
1,1,2,3,1.8107,100,311,0,7,1192,616,1,15,19,1
1,1,1,3,0.70449,80,312,1,2,757,590,1,15,19,1
1,1,1,3,3.8409,45,313,1,2,755,626,1,15,19,1
1,1,1,3,0.60821,45,314,1,2,795,583,1,15,19,1
1,1,1,3,0.70524,35,315,1,2,860,567,1,15,19,1
1,2,2,4,0.4973,35,316,1,8,1114,674,1,15,19,1
1,1,1,3,0.5383,90,317,1,2,713,600,1,15,19,1
1,1,1,3,0.74809,80,318,1,2,829,591,1,15,19,1
1,2,2,3,0.51339,70,319,1,7,1194,614,1,15,19,1
1,1,1,4,0.56199,0,320,1,1,852,720,1,15,19,1
1,1,1,3,0.62806,60,321,1,2,809,584,1,15,19,1
1,1,2,3,0.83809,80,322,0,7,1191,628,1,15,19,1
1,1,1,4,0.74472,35,323,1,1,778,735,1,15,19,1
1,1,2,3,0.53614,90,324,0,7,1162,643,1,15,19,1
1,1,2,3,0.76316,90,325,0,7,1132,590,1,15,19,1
1,1,1,2,0.86487,60,326,1,3,722,517,1,15,19,1
1,1,2,3,0.43451,100,327,0,7,1233,622,1,15,19,1
1,1,1,4,2.2862,0,328,1,1,807,721,1,15,19,1
1,1,2,3,0.79299,60,329,0,7,1171,601,1,15,19,1
1,1,2,3,0.5987,100,330,0,7,1088,596,1,15,19,1
1,2,2,3,1.0367,80,331,1,7,1129,564,1,15,19,1
1,1,1,4,0.49639,0,332,1,1,815,729,1,15,19,1
1,2,2,3,0.71909,80,333,1,7,1124,584,1,15,19,1
1,2,2,4,0.48244,0,334,1,8,1057,656,1,15,19,1
1,2,2,4,1.0991,0,335,1,8,1018,603,1,15,19,1
1,1,2,2,1.2922,90,336,0,6,1231,492,1,15,19,1
1,2,2,3,0.79588,35,337,1,7,1198,571,1,15,19,1
1,2,2,3,1.1084,35,338,1,7,1114,586,1,15,19,1
1,2,2,3,0.53428,70,339,1,7,1135,587,1,15,19,1
1,2,2,3,0.59195,90,340,1,7,1186,616,1,15,19,1
1,1,1,3,0.79465,45,341,1,2,797,595,1,15,19,1
1,2,2,4,0.34494,0,342,1,8,1116,745,1,15,19,1
1,1,1,1,0.75142,100,343,1,4,816,400,1,15,19,1
1,2,2,3,0.53543,90,344,1,7,1116,585,1,15,19,1
1,2,2,3,0.71945,35,345,1,7,1163,598,1,15,19,1
1,2,2,3,0.60278,80,346,1,7,1087,589,1,15,19,1
1,2,2,3,0.46618,70,347,1,7,1169,628,1,15,19,1
1,2,2,3,0.72359,45,348,1,7,1157,611,1,15,19,1
1,1,1,3,0.73856,35,349,1,2,726,622,1,15,19,1
1,1,2,3,0.46824,90,350,0,7,1163,596,1,15,19,1
1,2,2,3,0.75593,35,351,1,7,1139,594,1,15,19,1
1,1,1,3,0.81763,60,352,1,2,710,627,1,15,19,1
1,1,1,2,0.55399,45,353,1,3,763,490,1,15,19,1
1,2,2,3,0.80032,60,354,1,7,1204,635,1,15,19,1
1,1,2,1,0.9773,90,355,0,5,1150,385,1,15,19,1
1,1,1,1,0.76242,70,356,1,4,871,447,1,15,19,1
1,1,1,4,0.57233,0,357,1,1,828,714,1,15,19,1
1,1,1,4,0.57444,0,358,1,1,866,657,1,15,19,1
1,1,2,2,0.71446,80,359,0,6,1189,525,1,15,19,1
1,2,2,2,0.62887,80,360,1,6,1224,501,1,15,19,1
1,1,1,1,0.67214,80,361,1,4,814,383,1,15,19,1
1,1,1,4,1.0262,0,362,1,1,790,710,1,15,19,1
1,2,2,3,0.76954,70,363,1,7,1238,622,1,15,19,1
1,1,1,1,1.681,90,364,1,4,843,431,1,15,19,1
1,2,2,1,0.78265,45,365,1,5,1133,345,1,15,19,1
1,1,1,2,0.6524,60,366,1,3,772,519,1,15,19,1
1,2,2,2,0.64876,80,367,1,6,1206,471,1,15,19,1
1,1,1,3,0.93874,35,368,1,2,770,586,1,15,19,1
1,1,2,3,0.56176,90,369,0,7,1221,636,1,15,19,1
1,1,1,1,0.71344,70,370,1,4,792,404,1,15,19,1
1,1,1,4,0.95702,0,371,1,1,823,736,1,15,19,1
1,2,2,4,0.59415,0,372,1,8,1135,744,1,15,19,1
1,1,1,1,0.6125,45,373,1,4,767,372,1,15,19,1
1,1,1,1,0.58426,70,374,1,4,859,430,1,15,19,1
1,2,2,3,3.205,0,375,1,7,1196,627,1,15,19,1
1,2,2,2,0.88932,80,376,1,6,1191,526,1,15,19,1
1,1,2,2,0.70778,100,377,0,6,1130,499,1,15,19,1
1,2,2,2,0.51474,80,378,1,6,1140,521,1,15,19,1
1,2,2,2,3.7721,35,379,1,6,1218,504,1,15,19,1
1,1,1,1,0.60027,90,380,1,4,827,410,1,15,19,1
1,1,2,1,0.89254,100,381,0,5,1101,419,1,15,19,1
1,2,2,2,1.3639,60,382,1,6,1174,497,1,15,19,1
1,2,2,4,0.4406,0,383,1,8,1104,733,1,15,19,1
1,2,2,2,0.87795,45,384,1,6,1158,487,1,15,19,1
1,1,1,1,0.69303,60,385,1,4,805,395,1,15,19,1
1,1,1,4,0.64365,0,386,1,1,829,720,1,15,19,1
1,1,1,2,1.126,80,387,1,3,724,523,1,15,19,1
1,1,1,3,1.1291,35,388,1,2,727,611,1,15,19,1
1,1,1,3,0.75052,45,389,1,2,822,602,1,15,19,1
1,2,2,4,0.37537,0,390,1,8,1114,731,1,15,19,1
1,2,1,2,1.3025,100,391,0,3,809,490,1,15,19,1
1,2,1,3,1.3756,100,392,0,2,728,594,1,15,19,1
1,2,2,3,0.88989,80,393,1,7,1139,594,1,15,19,1
1,2,2,1,0.64128,60,394,1,5,1084,432,1,15,19,1
1,2,2,2,0.83996,45,395,1,6,1124,515,1,15,19,1
1,1,1,4,0.46325,0,396,1,1,840,740,1,15,19,1
1,1,1,3,0.9251,35,397,1,2,820,605,1,15,19,1
1,1,1,2,0.87814,60,398,1,3,806,519,1,15,19,1
1,1,2,1,1.5114,70,399,0,5,1123,429,1,15,19,1
1,2,2,2,1.7741,35,400,1,7,1126,585,0,15,19,1
1,2,2,2,0.90946,35,401,1,7,1183,603,0,15,19,1
1,1,1,1,0.48421,35,402,1,1,750,662,0,15,19,1
1,2,2,1,0.80575,90,403,1,8,1158,733,0,15,19,1
1,2,2,3,1.2579,35,404,1,6,1154,509,0,15,19,1
1,2,2,2,0.60958,80,405,1,7,1106,557,0,15,19,1
1,2,1,2,0.57127,60,406,0,2,739,617,0,15,19,1
1,1,1,3,1.2257,60,407,1,3,731,511,0,15,19,1
1,2,2,2,0.448,90,408,1,7,1194,600,0,15,19,1
1,1,2,2,0.65607,80,409,0,7,1165,616,0,15,19,1
1,2,2,2,1.518,60,410,1,7,1169,608,0,15,19,1
1,1,1,2,1.1844,90,411,1,2,746,617,0,15,19,1
1,1,1,3,0.90518,70,412,1,3,731,534,0,15,19,1
1,1,1,4,0.93024,35,413,1,4,805,421,0,15,19,1
1,2,2,2,1.2592,100,414,1,7,1176,623,0,15,19,1
1,1,1,3,0.50591,45,415,1,3,763,518,0,15,19,1
1,2,1,3,0.81899,90,416,0,3,770,522,0,15,19,1
1,1,2,2,1.3212,90,417,0,7,1216,627,0,15,19,1
1,1,2,1,0.84869,80,418,0,8,1066,677,0,15,19,1
1,2,2,2,1.8137,60,419,1,7,1206,615,0,15,19,1
1,1,1,2,0.72141,90,420,1,2,776,610,0,15,19,1
1,1,1,2,0.97475,70,421,1,2,780,580,0,15,19,1
1,1,2,2,2.0508,70,422,0,7,1240,607,0,15,19,1
1,2,1,1,0.71509,90,423,0,1,782,732,0,15,19,1
1,2,2,2,1.3374,70,424,1,7,1196,614,0,15,19,1
1,2,1,2,0.80545,100,425,0,2,716,606,0,15,19,1
1,2,2,2,0.92827,100,426,1,7,1194,646,0,15,19,1
1,2,1,2,1.5144,100,427,0,2,741,614,0,15,19,1
1,2,2,3,0.29204,45,428,1,6,1181,495,0,15,19,1
1,2,1,2,0.41735,80,429,0,2,782,573,0,15,19,1
1,2,2,3,0.49209,45,430,1,6,1177,492,0,15,19,1
1,2,1,3,0.90445,80,431,0,3,777,500,0,15,19,1
1,2,1,2,1.3524,80,432,0,2,730,579,0,15,19,1
1,2,2,3,0.41249,0,433,1,6,1139,536,0,15,19,1
1,2,2,2,0.74846,45,434,1,7,1135,598,0,15,19,1
1,2,2,4,0.55957,0,435,1,5,1147,432,0,15,19,1
1,1,1,4,0.67656,0,436,1,4,781,387,0,15,19,1
1,1,2,2,0.95456,70,437,0,7,1206,614,0,15,19,1
1,2,1,2,0.50569,70,438,0,2,740,611,0,15,19,1
1,2,2,2,0.50932,70,439,1,7,1110,604,0,15,19,1
1,2,2,2,0.59099,60,440,1,7,1078,598,0,15,19,1
1,1,1,3,0.52636,60,441,1,3,839,510,0,15,19,1
1,1,2,3,0.52268,70,442,0,6,1110,524,0,15,19,1
1,2,1,2,0.86076,100,443,0,2,755,581,0,15,19,1
1,1,1,4,0.58745,0,444,1,4,798,390,0,15,19,1
1,1,1,4,0.61122,0,445,1,4,843,417,0,15,19,1
1,1,1,4,0.49519,0,446,1,4,868,469,0,15,19,1
1,2,2,4,0.65855,35,447,1,5,1109,447,0,15,19,1
1,2,1,3,0.57755,100,448,0,3,716,486,0,15,19,1
1,1,1,2,1.5386,100,449,1,2,777,624,0,15,19,1
1,2,2,4,0.62918,35,450,1,5,1120,373,0,15,19,1
1,1,1,3,1.1013,70,451,1,3,678,481,0,15,19,1
1,2,1,3,0.64164,70,452,0,3,855,512,0,15,19,1
1,1,2,2,0.88716,80,453,0,7,1157,592,0,15,19,1
1,1,1,4,0.36107,0,454,1,4,874,411,0,15,19,1
1,1,2,2,0.89371,90,455,0,7,1101,590,0,15,19,1
1,2,1,2,0.76742,90,456,0,2,802,584,0,15,19,1
1,1,1,4,0.6218,0,457,1,4,805,389,0,15,19,1
1,2,2,2,1.2451,80,458,1,7,1190,614,0,15,19,1
1,2,1,2,0.95958,90,459,0,2,721,600,0,15,19,1
1,1,1,2,0.85558,70,460,1,2,810,578,0,15,19,1
1,2,1,2,0.82428,70,461,0,2,716,614,0,15,19,1
1,2,2,2,1.4557,45,462,1,7,1216,601,0,15,19,1
1,1,1,2,0.58133,60,463,1,2,734,616,0,15,19,1
1,1,1,3,3.9981,0,464,1,3,709,474,0,15,19,1
1,1,1,2,0.66122,45,465,1,2,813,579,0,15,19,1
1,2,1,2,1.5052,70,466,0,2,728,636,0,15,19,1
1,2,2,4,0.56915,35,467,1,5,1172,377,0,15,19,1
1,2,2,3,0.64259,45,468,1,6,1150,535,0,15,19,1
1,2,1,2,0.57826,100,469,0,2,808,606,0,15,19,1
1,2,1,2,0.66829,100,470,0,2,815,589,0,15,19,1
1,1,1,4,0.53198,0,471,1,4,832,392,0,15,19,1
1,2,2,3,3.4176,90,472,1,6,1229,490,0,15,19,1
1,2,2,2,0.66216,45,473,1,7,1101,543,0,15,19,1
1,2,2,2,1.2021,90,474,1,7,1132,610,0,15,19,1
1,2,2,2,0.83008,100,475,1,7,1134,587,0,15,19,1
1,2,2,1,2.292,60,476,1,8,1102,685,0,15,19,1
1,2,1,2,0.47353,70,477,0,2,787,608,0,15,19,1
1,1,1,2,0.68986,45,478,1,2,707,618,0,15,19,1
1,1,1,4,1.6059,0,479,1,4,812,392,0,15,19,1
1,2,2,3,0.82889,70,480,1,6,1206,505,0,15,19,1
1,2,2,2,0.83697,100,481,1,7,1136,612,0,15,19,1
1,2,2,4,0.47395,0,482,1,5,1110,406,0,15,19,1
1,1,1,2,0.65712,100,483,1,2,741,617,0,15,19,1
1,1,1,2,0.96375,90,484,1,2,771,597,0,15,19,1
1,2,2,3,0.57753,35,485,1,6,1153,515,0,15,19,1
1,2,2,4,0.71064,0,486,1,5,1107,380,0,15,19,1
1,2,1,1,1.1235,90,487,0,1,863,679,0,15,19,1
1,1,1,2,0.56485,80,488,1,2,727,601,0,15,19,1
1,1,1,2,2.9092,70,489,1,2,767,625,0,15,19,1
1,2,2,2,0.86395,80,490,1,7,1173,599,0,15,19,1
1,2,2,1,1.2522,90,491,1,8,1102,708,0,15,19,1
1,2,2,1,0.67363,100,492,1,8,1051,633,0,15,19,1
1,2,2,2,0.53268,70,493,1,7,1137,607,0,15,19,1
1,2,2,2,0.52766,90,494,1,7,1083,593,0,15,19,1
1,2,2,2,0.52476,60,495,1,7,1190,620,0,15,19,1
1,2,2,2,1.1501,80,496,1,7,1132,587,0,15,19,1
1,2,1,2,0.69215,70,497,0,2,839,583,0,15,19,1
1,1,1,2,0.64756,60,498,1,2,809,596,0,15,19,1
1,2,2,1,0.83441,45,499,1,8,1134,696,0,15,19,1
1,1,1,2,1.0721,100,500,1,3,760,481,1,15,19,1
1,2,2,3,0.55445,45,501,1,7,1158,612,1,15,19,1
1,2,2,2,1.2974,45,502,1,6,1183,501,1,15,19,1
1,2,2,4,0.68544,0,503,1,8,1094,699,1,15,19,1
1,2,2,2,1.8222,60,504,1,6,1151,497,1,15,19,1
1,2,1,3,0.59959,80,505,0,2,812,614,1,15,19,1
1,2,2,3,0.56359,70,506,1,7,1140,584,1,15,19,1
1,2,2,2,0.68944,90,507,1,6,1140,487,1,15,19,1
1,1,1,3,0.60675,60,508,1,2,728,614,1,15,19,1
1,1,1,2,0.52874,60,509,1,3,794,487,1,15,19,1
1,2,2,2,0.44476,100,510,1,6,1236,500,1,15,19,1
1,2,1,2,1.0995,100,511,0,3,799,519,1,15,19,1
1,2,2,4,0.38932,0,512,1,8,1121,734,1,15,19,1
1,2,1,2,0.78415,45,513,0,3,804,510,1,15,19,1
1,1,1,2,0.9482,80,514,1,3,746,492,1,15,19,1
1,1,2,2,0.78343,80,515,0,6,1225,475,1,15,19,1
1,1,2,2,0.5723,100,516,0,6,1180,513,1,15,19,1
1,2,2,2,0.57327,60,517,1,6,1216,503,1,15,19,1
1,2,2,2,0.86324,90,518,1,6,1053,506,1,15,19,1
1,2,1,1,1.1302,100,519,0,4,777,362,1,15,19,1
1,1,2,1,2.1362,100,520,0,5,1108,391,1,15,19,1
1,1,1,1,2.0603,70,521,1,4,801,318,1,15,19,1
1,2,2,1,1.357,90,522,1,5,1144,365,1,15,19,1
1,1,2,2,0.59479,90,523,0,6,1129,503,1,15,19,1
1,1,2,1,0.61214,80,524,0,5,1146,388,1,15,19,1
1,2,1,1,1.3451,60,525,0,4,790,375,1,15,19,1
1,1,1,1,0.82253,70,526,1,4,802,414,1,15,19,1
1,1,1,2,1.0267,90,527,1,3,689,483,1,15,19,1
1,1,1,3,0.97394,35,528,1,2,726,595,1,15,19,1
1,1,1,2,0.96702,90,529,1,3,810,502,1,15,19,1
1,1,1,2,0.55768,80,530,1,3,750,500,1,15,19,1
1,1,1,2,1.0834,60,531,1,3,717,498,1,15,19,1
1,1,1,1,1.5609,70,532,1,4,793,390,1,15,19,1
1,1,1,4,0.58174,0,533,1,1,806,710,1,15,19,1
1,2,2,3,0.78886,70,534,1,7,1209,600,1,15,19,1
1,2,2,3,1.5131,90,535,1,7,1211,622,1,15,19,1
1,1,1,3,1.845,35,536,1,2,776,609,1,15,19,1
1,1,1,3,0.98431,100,537,1,2,733,580,1,15,19,1
1,2,2,3,0.6673,35,538,1,7,1153,614,1,15,19,1
1,1,1,3,0.84455,35,539,1,2,696,632,1,15,19,1
1,1,2,3,0.55705,90,540,0,7,1217,598,1,15,19,1
1,1,1,4,0.40398,0,541,1,1,773,731,1,15,19,1
1,1,2,2,0.9911,80,542,0,6,1205,482,1,15,19,1
1,1,1,2,0.83378,60,543,1,3,714,536,1,15,19,1
1,2,2,3,0.61145,45,544,1,7,1212,617,1,15,19,1
1,1,1,3,0.52615,70,545,1,2,729,621,1,15,19,1
1,2,2,3,0.53021,60,546,1,7,1175,594,1,15,19,1
1,2,2,4,0.57044,0,547,1,8,1127,755,1,15,19,1
1,2,1,1,1.6038,70,548,0,4,795,330,1,15,19,1
1,2,1,1,0.78528,90,549,0,4,855,408,1,15,19,1
1,2,2,3,0.70002,35,550,1,7,1191,614,1,15,19,1
1,1,1,4,2.9939,0,551,1,1,814,707,1,15,19,1
1,1,1,3,3.0065,70,552,1,2,773,609,1,15,19,1
1,1,1,2,1.4415,35,553,1,3,738,485,1,15,19,1
1,2,2,2,0.42475,45,554,1,6,1248,502,1,15,19,1
1,1,1,2,0.68421,45,555,1,3,714,450,1,15,19,1
1,1,2,2,1.2207,80,556,0,6,1207,515,1,15,19,1
1,1,2,2,1.6812,80,557,0,6,1148,501,1,15,19,1
1,1,2,1,1.106,45,558,0,5,1128,378,1,15,19,1
1,1,1,1,2.0199,80,559,1,4,787,385,1,15,19,1
1,1,1,2,0.81243,100,560,1,3,795,511,1,15,19,1
1,2,2,2,0.50733,90,561,1,6,1166,474,1,15,19,1
1,2,2,2,0.77208,45,562,1,6,1209,485,1,15,19,1
1,2,2,2,0.93833,100,563,1,6,1088,505,1,15,19,1
1,2,2,1,0.74211,70,564,1,5,1122,406,1,15,19,1
1,1,1,2,0.68816,45,565,1,3,749,484,1,15,19,1
1,1,1,2,0.74592,60,566,1,3,797,518,1,15,19,1
1,2,2,4,1.4615,0,567,1,8,1147,750,1,15,19,1
1,2,2,2,0.88829,60,568,1,6,1154,503,1,15,19,1
1,2,2,4,0.58034,0,569,1,8,1075,663,1,15,19,1
1,2,2,4,1.6963,0,570,1,8,1099,667,1,15,19,1
1,2,2,3,3.4917,45,571,1,7,1191,611,1,15,19,1
1,1,2,2,2.9151,100,572,0,6,1215,496,1,15,19,1
1,2,2,1,1.5458,45,573,1,5,1135,380,1,15,19,1
1,2,2,3,1.5092,0,574,1,7,1190,602,1,15,19,1
1,1,1,3,1.1892,35,575,1,2,689,602,1,15,19,1
1,1,1,3,0.84358,45,576,1,2,737,617,1,15,19,1
1,2,2,3,0.62599,35,577,1,7,1163,601,1,15,19,1
1,1,1,3,0.91911,80,578,1,2,711,615,1,15,19,1
1,2,1,2,0.97271,80,579,0,3,745,517,1,15,19,1
1,1,1,2,0.40572,100,580,1,3,841,503,1,15,19,1
1,2,1,2,0.65447,90,581,0,3,775,520,1,15,19,1
1,1,1,2,0.64868,100,582,1,3,675,496,1,15,19,1
1,2,2,2,0.46703,45,583,1,6,1233,494,1,15,19,1
1,1,1,2,0.4925,60,584,1,3,731,529,1,15,19,1
1,1,1,2,0.75116,90,585,1,3,718,500,1,15,19,1
1,1,1,2,0.85456,60,586,1,3,730,497,1,15,19,1
1,2,2,2,0.90661,80,587,1,6,1194,493,1,15,19,1
1,2,1,2,0.4442,100,588,0,3,698,498,1,15,19,1
1,1,1,2,0.66299,100,589,1,3,721,485,1,15,19,1
1,2,1,2,0.57759,100,590,0,3,685,519,1,15,19,1
1,1,1,2,1.1227,45,591,1,3,727,522,1,15,19,1
1,2,2,3,0.53667,0,592,1,7,1223,629,1,15,19,1
1,2,1,3,0.52381,90,593,0,2,741,598,1,15,19,1
1,2,1,3,0.51176,100,594,0,2,721,620,1,15,19,1
1,2,2,3,1.5968,35,595,1,7,1204,604,1,15,19,1
1,1,1,3,0.52117,70,596,1,2,741,636,1,15,19,1
1,1,1,3,0.79349,90,597,1,2,729,608,1,15,19,1
1,2,2,3,1.2629,45,598,1,7,1200,607,1,15,19,1
1,1,1,3,0.44084,80,599,1,2,686,623,1,15,19,1
1,1,1,2,2.3615,60,600,1,2,720,617,0,15,19,1
1,1,1,3,0.50122,35,601,1,3,761,511,0,15,19,1
1,2,2,3,0.52115,45,602,1,6,1227,506,0,15,19,1
1,2,1,2,0.65465,90,603,0,2,735,599,0,15,19,1
1,2,2,3,0.57498,90,604,1,6,1202,501,0,15,19,1
1,2,2,3,0.62501,45,605,1,6,1199,475,0,15,19,1
1,2,2,4,0.46405,0,606,1,5,1115,391,0,15,19,1
1,1,1,3,1.1245,45,607,1,3,747,493,0,15,19,1
1,2,2,4,2.2728,0,608,1,5,1126,392,0,15,19,1
1,1,1,4,0.43505,0,609,1,4,832,380,0,15,19,1
1,2,2,3,0.50877,45,610,1,6,1222,475,0,15,19,1
1,1,1,3,0.51658,60,611,1,3,713,455,0,15,19,1
1,1,1,4,0.61487,35,612,1,4,824,386,0,15,19,1
1,2,2,4,0.61125,0,613,1,5,1131,384,0,15,19,1
1,2,1,1,1.4023,60,614,0,1,822,689,0,15,19,1
1,1,1,3,0.63432,45,615,1,3,751,512,0,15,19,1
1,2,2,3,0.73724,70,616,1,6,1220,492,0,15,19,1
1,2,2,3,0.76903,35,617,1,6,1207,485,0,15,19,1
1,1,1,2,0.7664,100,618,1,2,741,605,0,15,19,1
1,2,2,2,0.44778,90,619,1,7,1165,612,0,15,19,1
1,2,2,2,1.3981,70,620,1,7,1166,591,0,15,19,1
1,1,1,1,0.96206,60,621,1,1,837,706,0,15,19,1
1,2,2,1,0.60311,45,622,1,8,1072,727,0,15,19,1
1,2,2,2,0.50418,45,623,1,7,1134,621,0,15,19,1
1,1,1,2,1.3062,100,624,1,2,741,618,0,15,19,1
1,1,2,2,0.47295,100,625,0,7,1193,647,0,15,19,1
1,2,2,3,0.92341,35,626,1,6,1212,494,0,15,19,1
1,1,2,2,0.60132,80,627,0,7,1169,598,0,15,19,1
1,1,1,4,0.66467,0,628,1,4,846,380,0,15,19,1
1,1,2,2,0.62128,90,629,0,7,1222,617,0,15,19,1
1,1,1,3,1.0791,35,630,1,3,702,508,0,15,19,1
1,2,2,4,0.71002,0,631,1,5,1148,369,0,15,19,1
1,2,2,2,0.75169,90,632,1,7,1222,613,0,15,19,1
1,1,1,3,1.2069,35,633,1,3,715,466,0,15,19,1
1,1,2,2,0.92986,100,634,0,7,1204,636,0,15,19,1
1,1,1,4,0.36685,45,635,1,4,761,356,0,15,19,1
1,2,2,3,0.95251,60,636,1,6,1223,461,0,15,19,1
1,1,1,2,0.6316,60,637,1,2,715,638,0,15,19,1
1,2,2,2,0.76629,70,638,1,7,1204,579,0,15,19,1
1,1,1,4,0.45172,0,639,1,4,821,401,0,15,19,1
1,2,2,2,0.59501,70,640,1,7,1231,590,0,15,19,1
1,1,1,1,0.59631,90,641,1,1,834,731,0,15,19,1
1,2,1,1,0.66676,100,642,0,1,838,696,0,15,19,1
1,2,2,2,0.82041,45,643,1,7,1206,617,0,15,19,1
1,1,1,1,0.8868,70,644,1,1,826,689,0,15,19,1
1,2,2,1,0.55143,70,645,1,8,1135,699,0,15,19,1
1,1,1,3,0.46686,45,646,1,3,767,497,0,15,19,1
1,1,1,2,0.53219,60,647,1,2,814,571,0,15,19,1
1,2,2,1,0.91524,90,648,1,8,1093,680,0,15,19,1
1,1,1,2,1.0273,45,649,1,2,758,645,0,15,19,1
1,1,1,1,0.90126,100,650,1,1,816,743,0,15,19,1
1,1,1,2,0.82638,70,651,1,2,828,597,0,15,19,1
1,2,2,2,0.71801,70,652,1,7,1135,607,0,15,19,1
1,1,1,2,0.41842,70,653,1,2,746,622,0,15,19,1
1,1,1,2,0.81203,45,654,1,2,780,607,0,15,19,1
1,1,2,2,0.3789,80,655,0,7,1150,616,0,15,19,1
1,1,1,2,0.56915,45,656,1,2,769,606,0,15,19,1
1,2,2,2,0.75855,70,657,1,7,1185,604,0,15,19,1
1,2,2,2,0.62918,90,658,1,7,1086,582,0,15,19,1
1,1,1,2,0.37526,90,659,1,2,703,603,0,15,19,1
1,1,1,2,0.59161,60,660,1,2,811,570,0,15,19,1
1,1,1,3,0.50889,100,661,1,3,727,475,0,15,19,1
1,2,2,2,0.61003,100,662,1,7,1176,631,0,15,19,1
1,2,2,4,0.77565,0,663,1,5,1136,382,0,15,19,1
1,2,2,2,0.43967,90,664,1,7,1171,587,0,15,19,1
1,2,1,3,0.78236,60,665,0,3,760,508,0,15,19,1
1,2,1,2,1.1131,100,666,0,2,789,606,0,15,19,1
1,2,2,2,0.44185,60,667,1,7,1187,627,0,15,19,1
1,2,2,2,0.79754,45,668,1,7,1169,624,0,15,19,1
1,2,1,1,0.50841,70,669,0,1,752,711,0,15,19,1
1,2,2,1,0.65916,90,670,1,8,1139,685,0,15,19,1
1,1,1,2,0.56818,80,671,1,2,718,609,0,15,19,1
1,1,1,4,0.6016,0,672,1,4,806,431,0,15,19,1
1,2,2,3,0.60555,100,673,1,6,1217,457,0,15,19,1
1,1,1,4,0.45651,35,674,1,4,796,380,0,15,19,1
1,2,2,2,0.5547,70,675,1,7,1186,637,0,15,19,1
1,2,2,2,1.0559,60,676,1,7,1088,578,0,15,19,1
1,2,2,2,1.3387,35,677,1,7,1172,630,0,15,19,1
1,1,2,1,1.2294,100,678,0,8,1078,681,0,15,19,1
1,2,2,4,0.44047,0,679,1,5,1093,394,0,15,19,1
1,2,2,4,0.41524,0,680,1,5,1020,467,0,15,19,1
1,1,1,3,0.66242,45,681,1,3,758,509,0,15,19,1
1,1,1,3,0.58749,35,682,1,3,783,509,0,15,19,1
1,2,2,3,1.1412,60,683,1,6,1195,513,0,15,19,1
1,1,1,2,0.6225,100,684,1,2,748,618,0,15,19,1
1,2,1,2,0.67862,80,685,0,2,811,605,0,15,19,1
1,1,1,3,0.89391,45,686,1,3,729,497,0,15,19,1
1,1,2,2,0.37126,100,687,0,7,1227,615,0,15,19,1
1,2,2,1,0.60796,80,688,1,8,1063,617,0,15,19,1
1,2,2,2,0.59066,45,689,1,7,1143,608,0,15,19,1
1,1,1,2,0.56909,80,690,1,2,784,599,0,15,19,1
1,1,1,3,0.50347,35,691,1,3,818,509,0,15,19,1
1,2,2,2,0.4568,70,692,1,7,1079,569,0,15,19,1
1,2,1,2,0.44047,100,693,0,2,724,646,0,15,19,1
1,1,1,3,0.46014,35,694,1,3,779,492,0,15,19,1
1,2,2,4,0.49575,45,695,1,5,1146,386,0,15,19,1
1,1,1,3,0.54513,80,696,1,3,700,512,0,15,19,1
1,2,1,2,0.42592,100,697,0,2,737,613,0,15,19,1
1,2,2,3,0.87722,60,698,1,6,1172,531,0,15,19,1
1,2,2,3,0.95038,45,699,1,6,1125,525,0,15,19,1
1,1,1,2,0.82421,90,700,1,3,747,482,1,15,19,1
1,1,1,2,0.6153,80,701,1,3,760,510,1,15,19,1
1,1,1,2,0.41297,60,702,1,3,730,501,1,15,19,1
1,2,2,3,0.45766,35,703,1,7,1199,596,1,15,19,1
1,1,1,3,0.5763,45,704,1,2,699,624,1,15,19,1
1,1,1,3,0.59676,80,705,1,2,788,586,1,15,19,1
1,2,2,3,0.55574,60,706,1,7,1203,619,1,15,19,1
1,1,1,3,1.1188,0,707,1,2,734,604,1,15,19,1
1,1,1,3,0.47612,35,708,1,2,812,590,1,15,19,1
1,1,2,1,0.65021,80,709,0,5,1173,399,1,15,19,1
1,1,2,2,0.93847,60,710,0,6,1144,489,1,15,19,1
1,2,2,3,2.4093,35,711,1,7,1156,617,1,15,19,1
1,1,1,2,0.49785,70,712,1,3,681,504,1,15,19,1
1,1,2,2,1.1133,70,713,0,6,1206,476,1,15,19,1
1,2,2,3,1.589,35,714,1,7,1166,612,1,15,19,1
1,2,2,2,0.67936,60,715,1,6,1122,503,1,15,19,1
1,1,1,2,1.1984,90,716,1,3,732,487,1,15,19,1
1,1,2,2,0.94071,60,717,0,6,1099,526,1,15,19,1
1,1,1,3,0.3931,35,718,1,2,788,619,1,15,19,1
1,1,2,2,1.0124,60,719,0,6,1200,511,1,15,19,1
1,2,2,2,0.97729,45,720,1,6,1205,487,1,15,19,1
1,1,1,2,0.50987,60,721,1,3,719,491,1,15,19,1
1,1,1,1,1.3785,70,722,1,4,762,362,1,15,19,1
1,2,2,2,0.70588,80,723,1,6,1243,512,1,15,19,1
1,2,2,1,0.5396,100,724,1,5,1080,423,1,15,19,1
1,1,1,2,0.88632,100,725,1,3,787,509,1,15,19,1
1,1,1,2,0.72899,45,726,1,3,725,505,1,15,19,1
1,1,1,3,0.4651,45,727,1,2,782,598,1,15,19,1
1,2,2,2,0.57945,45,728,1,6,1188,515,1,15,19,1
1,2,2,3,1.0718,100,729,1,7,1137,583,1,15,19,1
1,1,1,3,0.65411,45,730,1,2,768,568,1,15,19,1
1,2,2,2,0.42553,90,731,1,6,1141,517,1,15,19,1
1,1,1,2,0.53253,45,732,1,3,837,503,1,15,19,1
1,1,1,3,0.63621,35,733,1,2,791,618,1,15,19,1
1,2,2,3,1.124,60,734,1,7,1164,613,1,15,19,1
1,2,2,3,1.0334,70,735,1,7,1113,581,1,15,19,1
1,2,2,4,0.9049,0,736,1,8,1030,638,1,15,19,1
1,1,1,4,0.99413,0,737,1,1,845,665,1,15,19,1
1,1,1,4,0.46966,35,738,1,1,866,688,1,15,19,1
1,2,2,2,0.42105,80,739,1,6,1185,524,1,15,19,1
1,1,1,3,0.67243,45,740,1,2,754,632,1,15,19,1
1,2,2,3,0.47382,90,741,1,7,1175,621,1,15,19,1
1,1,1,2,0.93583,35,742,1,3,737,479,1,15,19,1
1,2,2,2,0.42144,90,743,1,6,1196,534,1,15,19,1
1,2,2,2,0.52612,100,744,1,6,1140,485,1,15,19,1
1,1,2,1,0.81011,80,745,0,5,1137,374,1,15,19,1
1,2,2,2,0.65789,90,746,1,6,1173,517,1,15,19,1
1,2,1,1,1.0186,100,747,0,4,788,406,1,15,19,1
1,1,1,2,1.9053,70,748,1,3,734,512,1,15,19,1
1,2,2,1,0.44325,80,749,1,5,1173,353,1,15,19,1
1,1,2,1,0.66967,80,750,0,5,1050,441,1,15,19,1
1,2,2,1,0.62238,80,751,1,5,1078,431,1,15,19,1
1,1,1,1,0.97909,70,752,1,4,800,375,1,15,19,1
1,2,2,2,0.7464,60,753,1,6,1192,517,1,15,19,1
1,1,1,2,0.39482,45,754,1,3,795,504,1,15,19,1
1,1,2,2,0.86947,100,755,0,6,1159,519,1,15,19,1
1,2,2,1,0.77678,100,756,1,5,1124,384,1,15,19,1
1,1,1,1,0.93516,70,757,1,4,769,342,1,15,19,1
1,2,2,3,6.9089,35,758,1,7,1150,613,1,15,19,1
1,2,2,4,0.44258,0,759,1,8,1106,720,1,15,19,1
1,2,2,4,0.472,0,760,1,8,1120,700,1,15,19,1
1,1,1,3,0.54036,90,761,1,2,764,608,1,15,19,1
1,2,2,2,0.43673,60,762,1,6,1158,490,1,15,19,1
1,2,2,3,0.50777,35,763,1,7,1194,623,1,15,19,1
1,2,2,4,0.73139,35,764,1,8,1118,735,1,15,19,1
1,2,2,4,0.50214,35,765,1,8,1100,684,1,15,19,1
1,1,1,3,0.54951,80,766,1,2,729,619,1,15,19,1
1,2,2,2,0.37886,90,767,1,6,1190,484,1,15,19,1
1,2,2,2,0.51398,60,768,1,6,1097,536,1,15,19,1
1,2,2,2,0.49859,45,769,1,6,1173,514,1,15,19,1
1,1,1,2,1.0056,60,770,1,3,740,470,1,15,19,1
1,1,1,2,0.49463,60,771,1,3,817,524,1,15,19,1
1,1,1,4,0.46994,0,772,1,1,801,749,1,15,19,1
1,1,1,3,1.3454,100,773,1,2,782,573,1,15,19,1
1,2,1,1,1.3618,60,774,0,4,799,413,1,15,19,1
1,1,1,1,0.79468,90,775,1,4,762,366,1,15,19,1
1,1,1,3,0.62307,45,776,1,2,759,619,1,15,19,1
1,1,1,3,0.59952,35,777,1,2,866,585,1,15,19,1
1,2,2,2,0.56143,45,778,1,6,1217,538,1,15,19,1
1,2,2,3,0.90823,60,779,1,7,1204,647,1,15,19,1
1,1,1,2,1.1529,90,780,1,3,716,486,1,15,19,1
1,1,1,4,1.423,0,781,1,1,802,747,1,15,19,1
1,1,1,3,2.3683,35,782,1,2,741,625,1,15,19,1
1,2,1,1,0.94014,100,783,0,4,819,431,1,15,19,1
1,1,1,3,0.84537,45,784,1,2,718,641,1,15,19,1
1,2,2,3,0.50371,45,785,1,7,1133,578,1,15,19,1
1,1,1,3,0.3648,100,786,1,2,748,589,1,15,19,1
1,2,1,3,0.51245,80,787,0,2,780,587,1,15,19,1
1,2,2,3,0.56911,45,788,1,7,1192,609,1,15,19,1
1,1,1,2,0.55376,70,789,1,3,689,513,1,15,19,1
1,1,1,2,0.86318,70,790,1,3,741,501,1,15,19,1
1,1,2,2,1.0191,90,791,0,6,1209,509,1,15,19,1
1,1,1,2,1.3346,90,792,1,3,704,526,1,15,19,1
1,1,1,3,0.69359,35,793,1,2,806,580,1,15,19,1
1,2,2,3,0.48696,35,794,1,7,1118,586,1,15,19,1
1,2,1,3,0.78497,80,795,0,2,795,606,1,15,19,1
1,1,1,4,0.85068,0,796,1,1,841,709,1,15,19,1
1,1,1,2,0.83878,45,797,1,3,791,512,1,15,19,1
1,2,2,2,1.5242,80,798,1,6,1152,518,1,15,19,1
1,1,1,2,0.2915,45,799,1,3,783,473,1,15,19,1
1,2,2,4,0.53575,0,800,1,8,1101,672,1,15,19,1
1,2,2,2,0.63792,35,1,1,6,1198,519,1,15,19,1
1,1,1,2,0.53476,45,2,1,3,794,463,1,15,19,1
1,1,1,1,0.53665,90,3,1,4,781,403,1,15,19,1
1,1,1,2,0.58538,90,4,1,3,770,514,1,15,19,1
1,2,2,2,0.60142,45,5,1,6,1205,491,1,15,19,1
1,1,1,2,0.45435,45,6,1,3,694,483,1,15,19,1
1,1,1,2,0.55648,90,7,1,3,774,515,1,15,19,1
1,2,2,2,0.56616,80,8,1,6,1232,506,1,15,19,1
1,1,1,2,0.45375,70,9,1,3,689,495,1,15,19,1
1,2,2,2,0.64086,100,10,1,6,1191,471,1,15,19,1
1,2,2,4,1.6785,0,11,1,8,1152,728,1,15,19,1
1,1,1,3,0.66769,60,12,1,2,737,612,1,15,19,1
1,1,2,1,0.79031,100,13,0,5,1185,364,1,15,19,1
1,2,2,4,0.66567,0,14,1,8,1096,685,1,15,19,1
1,2,1,2,1.4033,60,15,0,3,704,512,1,15,19,1
1,1,1,2,1.1674,90,16,1,3,728,499,1,15,19,1
1,1,1,1,0.61277,90,17,1,4,847,421,1,15,19,1
1,1,1,2,0.92078,80,18,1,3,724,526,1,15,19,1
1,1,1,2,0.81851,80,19,1,3,737,492,1,15,19,1
1,1,1,2,0.56886,90,20,1,3,730,528,1,15,19,1
1,1,1,2,0.64756,100,21,1,3,867,527,1,15,19,1
1,2,2,2,0.54961,80,22,1,6,1195,513,1,15,19,1
1,1,2,2,0.64756,100,23,0,6,1155,523,1,15,19,1
1,1,1,1,0.88162,70,24,1,4,807,391,1,15,19,1
1,2,2,1,0.87858,70,25,1,5,1084,360,1,15,19,1
1,2,2,2,0.52269,70,26,1,6,1143,513,1,15,19,1
1,2,2,4,1.0515,0,27,1,8,1101,747,1,15,19,1
1,2,2,4,0.99408,80,28,1,8,1178,679,1,15,19,1
1,1,1,4,0.94215,0,29,1,1,808,746,1,15,19,1
1,1,1,3,0.83082,45,30,1,2,764,614,1,15,19,1
1,1,1,3,0.52678,45,31,1,2,801,583,1,15,19,1
1,2,2,3,0.58885,90,32,1,7,1197,633,1,15,19,1
1,1,2,3,1.5685,90,33,0,7,1114,625,1,15,19,1
1,1,1,4,0.72683,0,34,1,1,777,726,1,15,19,1
1,2,2,4,1.3609,45,35,1,8,1124,756,1,15,19,1
1,2,2,2,0.66767,60,36,1,6,1159,481,1,15,19,1
1,1,1,4,0.46428,0,37,1,1,778,730,1,15,19,1
1,1,1,4,0.65261,0,38,1,1,809,748,1,15,19,1
1,1,1,2,0.59404,70,39,1,3,812,500,1,15,19,1
1,2,2,2,1.0412,60,40,1,6,1189,506,1,15,19,1
1,2,2,2,0.50072,80,41,1,6,1141,503,1,15,19,1
1,2,2,2,0.70982,80,42,1,6,1059,514,1,15,19,1
1,1,1,2,0.48079,45,43,1,3,720,485,1,15,19,1
1,1,1,4,0.64139,0,44,1,1,809,732,1,15,19,1
1,2,2,3,0.54318,35,45,1,7,1178,587,1,15,19,1
1,2,2,2,0.76053,100,46,1,6,1153,506,1,15,19,1
1,2,2,2,0.80657,80,47,1,6,1059,534,1,15,19,1
1,1,1,2,0.56725,60,48,1,3,819,508,1,15,19,1
1,1,1,1,0.92071,90,49,1,4,855,446,1,15,19,1
1,2,2,2,0.70507,60,50,1,6,1114,517,1,15,19,1
1,2,2,4,0.55735,0,51,1,8,1087,684,1,15,19,1
1,1,2,1,0.61101,60,52,0,5,1098,399,1,15,19,1
1,2,2,1,0.59813,100,53,1,5,1065,429,1,15,19,1
1,1,1,2,0.42811,35,54,1,3,717,472,1,15,19,1
1,2,2,2,0.40608,70,55,1,6,1140,494,1,15,19,1
1,2,2,4,0.94577,0,56,1,8,1144,733,1,15,19,1
1,2,2,2,0.5275,35,57,1,6,1181,479,1,15,19,1
1,1,1,2,0.46219,35,58,1,3,737,495,1,15,19,1
1,2,2,2,0.793,70,59,1,6,1206,518,1,15,19,1
1,1,1,4,2.9963,0,60,1,1,791,735,1,15,19,1
1,1,2,1,0.69398,90,61,0,5,1136,397,1,15,19,1
1,1,1,1,1.5186,80,62,1,4,761,386,1,15,19,1
1,2,2,2,0.50708,80,63,1,6,1160,460,1,15,19,1
1,2,2,1,0.61076,80,64,1,5,1107,430,1,15,19,1
1,2,2,1,0.71674,60,65,1,5,1093,423,1,15,19,1
1,2,2,1,0.69013,100,66,1,5,1081,407,1,15,19,1
1,1,1,1,0.60648,80,67,1,4,851,422,1,15,19,1
1,2,2,1,0.56827,90,68,1,5,1140,408,1,15,19,1
1,2,2,1,0.59191,70,69,1,5,1099,419,1,15,19,1
1,2,2,1,0.52719,100,70,1,5,1087,393,1,15,19,1
1,2,2,2,0.6989,45,71,1,6,1139,511,1,15,19,1
1,2,2,2,0.50925,45,72,1,6,1199,511,1,15,19,1
1,1,1,1,0.7393,90,73,1,4,783,395,1,15,19,1
1,2,2,4,0.54353,0,74,1,8,1093,697,1,15,19,1
1,2,2,2,0.87798,70,75,1,6,1152,487,1,15,19,1
1,2,2,3,1.1271,35,76,1,7,1106,597,1,15,19,1
1,1,1,4,0.45828,0,77,1,1,795,730,1,15,19,1
1,1,1,4,0.78802,0,78,1,1,792,709,1,15,19,1
1,1,1,2,0.95518,45,79,1,3,748,516,1,15,19,1
1,2,2,4,0.78404,0,80,1,8,1166,737,1,15,19,1
1,2,1,1,0.64477,60,81,0,4,792,358,1,15,19,1
1,2,2,4,0.49522,0,82,1,8,1130,719,1,15,19,1
1,1,1,1,0.33681,100,83,1,4,798,325,1,15,19,1
1,2,2,3,0.46555,35,84,1,7,1156,617,1,15,19,1
1,2,1,1,0.7302,80,85,0,4,780,372,1,15,19,1
1,2,2,2,0.42828,45,86,1,6,1157,518,1,15,19,1
1,1,1,3,0.36132,0,87,1,2,797,617,1,15,19,1
1,2,2,2,0.54002,70,88,1,6,1133,525,1,15,19,1
1,1,1,3,0.56467,70,89,1,2,739,594,1,15,19,1
1,1,1,1,0.54237,70,90,1,4,792,420,1,15,19,1
1,1,1,2,0.78772,45,91,1,3,762,511,1,15,19,1
1,2,2,2,0.6404,70,92,1,6,1209,487,1,15,19,1
1,2,2,1,0.52812,70,93,1,5,1082,430,1,15,19,1
1,2,2,1,0.82006,35,94,1,5,1142,380,1,15,19,1
1,2,2,1,0.64053,45,95,1,5,1071,459,1,15,19,1
1,1,1,1,0.92283,90,96,1,4,760,348,1,15,19,1
1,2,1,1,0.63124,90,97,0,4,871,471,1,15,19,1
1,2,2,2,0.81695,90,98,1,6,1178,485,1,15,19,1
1,1,2,1,0.7386,60,99,0,5,1049,434,1,15,19,1
1,1,1,1,0.93859,80,100,1,1,786,740,0,15,19,1
1,2,2,2,0.49872,70,101,1,7,1223,648,0,15,19,1
1,2,2,3,0.85079,35,102,1,6,1195,502,0,15,19,1
1,1,1,2,0.39972,90,103,1,2,699,630,0,15,19,1
1,2,2,2,0.35282,80,104,1,7,1216,623,0,15,19,1
1,2,2,1,0.48946,70,105,1,8,1043,652,0,15,19,1
1,2,1,2,0.42615,90,106,0,2,748,600,0,15,19,1
1,1,1,4,0.45415,0,107,1,4,821,383,0,15,19,1
1,2,2,3,0.85207,70,108,1,6,1178,519,0,15,19,1
1,2,2,2,0.43336,80,109,1,7,1171,607,0,15,19,1
1,2,2,4,0.40431,0,110,1,5,1142,393,0,15,19,1
1,2,1,3,0.81431,60,111,0,3,724,486,0,15,19,1
1,2,2,3,0.55602,35,112,1,6,1105,461,0,15,19,1
1,1,1,2,1.1637,100,113,1,2,733,595,0,15,19,1
1,1,1,2,0.55137,45,114,1,2,716,648,0,15,19,1
1,1,1,3,0.51575,35,115,1,3,768,502,0,15,19,1
1,2,2,4,0.35001,0,116,1,5,1151,383,0,15,19,1
1,1,1,3,0.83214,70,117,1,3,743,493,0,15,19,1
1,2,2,1,1.1961,100,118,1,8,1136,713,0,15,19,1
1,2,2,3,0.56449,35,119,1,6,1153,494,0,15,19,1
1,1,1,2,0.50088,90,120,1,2,720,611,0,15,19,1
1,2,1,2,0.84426,35,121,0,2,777,597,0,15,19,1
1,1,1,3,0.67458,80,122,1,3,762,503,0,15,19,1
1,1,1,3,0.5676,35,123,1,3,714,496,0,15,19,1
1,2,2,2,0.90484,60,124,1,7,1206,629,0,15,19,1
1,1,1,2,0.90705,80,125,1,2,740,604,0,15,19,1
1,2,1,1,0.64915,100,126,0,1,855,643,0,15,19,1
1,2,1,1,0.42505,70,127,0,1,874,662,0,15,19,1
1,1,1,3,0.51211,35,128,1,3,786,513,0,15,19,1
1,1,2,1,1.2261,90,129,0,8,1030,628,0,15,19,1
1,1,1,2,2.3691,60,130,1,2,726,644,0,15,19,1
1,1,1,2,0.65182,100,131,1,2,777,618,0,15,19,1
1,1,1,3,0.45587,35,132,1,3,766,531,0,15,19,1
1,1,1,2,0.87063,60,133,1,2,722,619,0,15,19,1
1,1,1,3,0.49698,35,134,1,3,790,466,0,15,19,1
1,1,2,1,0.83505,100,135,0,8,1157,738,0,15,19,1
1,2,2,1,0.56498,100,136,1,8,1092,686,0,15,19,1
1,2,2,4,0.54065,0,137,1,5,1170,346,0,15,19,1
1,1,1,3,0.70606,60,138,1,3,704,482,0,15,19,1
1,2,1,1,0.51366,80,139,0,1,852,706,0,15,19,1
1,1,1,2,0.49775,60,140,1,2,802,573,0,15,19,1
1,2,1,2,0.41878,90,141,0,2,724,601,0,15,19,1
1,1,1,3,0.66517,100,142,1,3,801,520,0,15,19,1
1,2,1,1,0.31176,90,143,0,1,788,722,0,15,19,1
1,2,2,3,0.74156,35,144,1,6,1166,489,0,15,19,1
1,1,1,3,0.70992,60,145,1,3,716,511,0,15,19,1
1,1,1,3,0.54194,45,146,1,3,708,508,0,15,19,1
1,1,1,1,0.28025,100,147,1,1,903,615,0,15,19,1
1,2,2,4,0.52537,0,148,1,5,1158,421,0,15,19,1
1,1,1,3,0.73633,60,149,1,3,680,507,0,15,19,1
1,2,2,2,1.8073,60,150,1,7,1214,631,0,15,19,1
1,1,1,2,0.50808,100,151,1,2,751,605,0,15,19,1
1,2,2,2,0.49011,80,152,1,7,1206,591,0,15,19,1
1,1,1,2,0.41646,60,153,1,2,739,581,0,15,19,1
1,1,2,2,0.50012,90,154,0,7,1223,632,0,15,19,1
1,2,2,2,0.87315,80,155,1,7,1156,603,0,15,19,1
1,1,1,2,0.82212,80,156,1,2,690,596,0,15,19,1
1,2,1,2,0.91158,60,157,0,2,720,591,0,15,19,1
1,2,2,2,0.41459,70,158,1,7,1120,577,0,15,19,1
1,1,1,2,0.599,60,159,1,2,741,582,0,15,19,1
1,1,1,2,0.63529,100,160,1,2,876,568,0,15,19,1
1,2,2,3,0.40997,60,161,1,6,1220,504,0,15,19,1
1,2,1,1,2.4334,90,162,0,1,817,711,0,15,19,1
1,2,1,2,0.63546,70,163,0,2,765,624,0,15,19,1
1,2,1,2,0.45738,70,164,0,2,795,609,0,15,19,1
1,1,2,1,0.68201,70,165,0,8,1151,735,0,15,19,1
1,1,1,2,0.4091,45,166,1,2,763,606,0,15,19,1
1,1,2,1,0.55677,60,167,0,8,1092,694,0,15,19,1
1,2,2,3,0.50353,35,168,1,6,1203,511,0,15,19,1
1,2,1,2,0.54688,60,169,0,2,779,588,0,15,19,1
1,2,2,2,0.64317,45,170,1,7,1232,607,0,15,19,1
1,1,1,3,0.8395,0,171,1,3,697,513,0,15,19,1
1,1,1,1,0.32221,80,172,1,1,772,739,0,15,19,1
1,2,2,2,0.39032,60,173,1,7,1143,600,0,15,19,1
1,1,1,2,0.37698,70,174,1,2,730,596,0,15,19,1
1,1,1,2,0.5631,80,175,1,2,775,574,0,15,19,1
1,1,1,2,0.46401,70,176,1,2,858,564,0,15,19,1
1,2,2,2,0.49373,70,177,1,7,1166,643,0,15,19,1
1,2,2,2,0.78407,90,178,1,7,1057,573,0,15,19,1
1,2,2,2,1.2618,90,179,1,7,1050,563,0,15,19,1
1,1,1,1,1.2207,0,180,1,1,810,709,0,15,19,1
1,1,1,2,0.55017,60,181,1,2,742,552,0,15,19,1
1,1,1,3,0.7222,70,182,1,3,742,516,0,15,19,1
1,1,1,4,0.38318,0,183,1,4,828,359,0,15,19,1
1,1,1,4,0.34028,35,184,1,4,833,413,0,15,19,1
1,1,1,2,0.44361,60,185,1,2,769,637,0,15,19,1
1,1,1,2,0.41432,90,186,1,2,839,590,0,15,19,1
1,2,2,1,0.40255,80,187,1,8,1136,719,0,15,19,1
1,1,1,2,0.49965,70,188,1,2,757,596,0,15,19,1
1,1,1,4,0.48695,0,189,1,4,804,381,0,15,19,1
1,2,2,4,0.48866,0,190,1,5,1077,449,0,15,19,1
1,2,2,2,1.0684,35,191,1,7,1207,602,0,15,19,1
1,1,1,2,0.40286,70,192,1,2,763,600,0,15,19,1
1,2,2,2,1.5862,35,193,1,7,1193,619,0,15,19,1
1,2,1,1,0.54179,100,194,0,1,840,744,0,15,19,1
1,2,2,3,0.66423,0,195,1,6,1202,503,0,15,19,1
1,2,1,2,0.35785,80,196,0,2,791,612,0,15,19,1
1,2,1,2,1.0079,60,197,0,2,740,589,0,15,19,1
1,2,2,2,0.44301,35,198,1,7,1207,597,0,15,19,1
1,1,1,1,0.73026,35,199,1,1,806,715,0,15,19,1
1,1,1,3,2.037,45,200,1,2,745,616,1,15,19,1
1,2,2,3,0.33702,45,201,1,7,1211,617,1,15,19,1
1,1,1,2,0.59168,70,202,1,3,720,480,1,15,19,1
1,2,2,2,1.1289,70,203,1,6,1204,521,1,15,19,1
1,2,1,1,0.651,100,204,0,4,806,377,1,15,19,1
1,1,1,1,0.43645,70,205,1,4,836,437,1,15,19,1
1,2,2,3,0.53814,45,206,1,7,1211,590,1,15,19,1
1,1,1,3,0.46581,35,207,1,2,749,636,1,15,19,1
1,1,1,2,0.55024,45,208,1,3,735,502,1,15,19,1
1,1,2,2,0.49422,70,209,0,6,1210,492,1,15,19,1
1,2,2,2,0.93466,90,210,1,6,1133,484,1,15,19,1
1,1,1,3,0.65358,35,211,1,2,750,611,1,15,19,1
1,2,1,1,0.59167,80,212,0,4,839,431,1,15,19,1
1,1,1,1,0.79021,60,213,1,4,829,378,1,15,19,1
1,2,2,2,0.87765,80,214,1,6,1195,535,1,15,19,1
1,2,2,4,0.52969,0,215,1,8,1094,674,1,15,19,1
1,1,1,4,0.64774,0,216,1,1,798,705,1,15,19,1
1,1,1,3,0.54806,35,217,1,2,806,591,1,15,19,1
1,1,1,3,0.33913,45,218,1,2,822,595,1,15,19,1
1,2,2,1,0.78285,80,219,1,5,1148,414,1,15,19,1
1,2,2,3,0.73782,100,220,1,7,1088,561,1,15,19,1
1,2,2,2,0.80686,60,221,1,6,1178,506,1,15,19,1
1,1,1,3,2.1785,45,222,1,2,731,633,1,15,19,1
1,2,2,3,0.6156,90,223,1,7,1173,597,1,15,19,1
1,1,1,3,24.713,80,224,1,2,739,617,1,15,19,1
1,1,2,2,0.83032,70,225,0,6,1201,493,1,15,19,1
1,2,1,1,0.3953,100,226,0,4,806,348,1,15,19,1
1,2,2,2,0.86905,35,227,1,6,1215,489,1,15,19,1
1,2,2,2,0.56346,60,228,1,6,1171,509,1,15,19,1
1,1,1,2,0.50808,100,229,1,3,736,493,1,15,19,1
1,1,1,2,0.44182,100,230,1,3,751,517,1,15,19,1
1,1,1,2,0.45445,70,231,1,3,748,520,1,15,19,1
1,1,1,2,0.79651,100,232,1,3,709,514,1,15,19,1
1,1,2,1,0.75968,80,233,0,5,1107,407,1,15,19,1
1,1,1,1,0.7835,70,234,1,4,803,367,1,15,19,1
1,1,1,2,1.0902,100,235,1,3,741,512,1,15,19,1
1,1,1,2,0.49295,80,236,1,3,747,514,1,15,19,1
1,1,1,2,0.72828,80,237,1,3,797,490,1,15,19,1
1,1,1,2,3.0334,35,238,1,3,755,503,1,15,19,1
1,1,1,1,0.89438,100,239,1,4,819,379,1,15,19,1
1,2,2,2,0.50579,60,240,1,6,1221,484,1,15,19,1
1,2,2,4,0.52534,0,241,1,8,1107,705,1,15,19,1
1,2,2,3,0.57548,35,242,1,7,1157,582,1,15,19,1
1,2,1,1,0.39714,60,243,0,4,836,407,1,15,19,1
1,2,2,2,1.1792,45,244,1,6,1168,461,1,15,19,1
1,1,2,1,3.4275,100,245,0,5,1130,395,1,15,19,1
1,2,1,2,0.5436,100,246,0,3,718,499,1,15,19,1
1,2,2,1,0.38833,70,247,1,5,1157,422,1,15,19,1
1,2,1,1,0.35899,80,248,0,4,784,407,1,15,19,1
1,1,1,3,0.61169,35,249,1,2,730,632,1,15,19,1
1,2,2,3,1.0034,45,250,1,7,1167,564,1,15,19,1
1,2,2,4,5.0048,0,251,1,8,1102,655,1,15,19,1
1,1,1,1,13.498,70,252,1,4,824,385,1,15,19,1
1,1,1,4,0.45335,35,253,1,1,770,744,1,15,19,1
1,2,2,4,0.69031,35,254,1,8,1136,738,1,15,19,1
1,1,1,4,0.73868,35,255,1,1,782,709,1,15,19,1
1,2,2,4,0.50088,35,256,1,8,1083,668,1,15,19,1
1,2,1,2,1.1428,90,257,0,3,758,485,1,15,19,1
1,1,1,4,0.53418,45,258,1,1,842,684,1,15,19,1
1,1,2,1,1.3318,80,259,0,5,1163,388,1,15,19,1
1,1,1,4,0.42046,0,260,1,1,799,751,1,15,19,1
1,2,2,4,0.37194,0,261,1,8,1048,645,1,15,19,1
1,1,1,2,0.48635,60,262,1,3,711,489,1,15,19,1
1,1,1,4,0.39925,0,263,1,1,755,715,1,15,19,1
1,1,1,2,1.8664,35,264,1,3,783,484,1,15,19,1
1,1,2,3,2.2896,0,265,0,7,1180,615,1,15,19,1
1,1,1,3,0.4198,45,266,1,2,806,568,1,15,19,1
1,2,2,2,0.96195,60,267,1,6,1236,495,1,15,19,1
1,2,1,1,0.87913,90,268,0,4,736,401,1,15,19,1
1,1,1,1,0.7443,70,269,1,4,787,437,1,15,19,1
1,1,1,2,0.62555,60,270,1,3,849,486,1,15,19,1
1,1,1,1,0.53382,100,271,1,4,815,378,1,15,19,1
1,1,1,2,1.0466,80,272,1,3,784,483,1,15,19,1
1,2,2,2,6.5138,0,273,1,6,1099,494,1,15,19,1
1,2,2,1,0.77272,100,274,1,5,1162,418,1,15,19,1
1,1,1,1,0.74168,35,275,1,4,825,339,1,15,19,1
1,1,1,1,2.3481,90,276,1,4,851,439,1,15,19,1
1,1,1,1,0.5774,70,277,1,4,780,326,1,15,19,1
1,2,2,2,0.79549,70,278,1,6,1190,492,1,15,19,1
1,2,2,3,1.2447,0,279,1,7,1177,624,1,15,19,1
1,2,1,2,1.6066,100,280,0,3,746,486,1,15,19,1
1,1,1,1,0.62031,60,281,1,4,830,412,1,15,19,1
1,2,2,2,0.73562,45,282,1,6,1209,480,1,15,19,1
1,2,2,1,0.35866,100,283,1,5,1162,396,1,15,19,1
1,2,1,2,0.65331,90,284,0,3,741,451,1,15,19,1
1,2,2,1,0.66641,60,285,1,5,1155,414,1,15,19,1
1,1,1,1,0.73897,100,286,1,4,821,384,1,15,19,1
1,2,1,1,0.54145,70,287,0,4,831,379,1,15,19,1
1,1,2,2,0.83215,100,288,0,6,1126,450,1,15,19,1
1,1,1,1,0.98206,90,289,1,4,815,373,1,15,19,1
1,2,2,1,0.74496,35,290,1,5,1178,405,1,15,19,1
1,1,1,1,1.0505,0,291,1,4,821,342,1,15,19,1
1,2,2,1,1.7265,60,292,1,5,1127,408,1,15,19,1
1,2,2,2,2.1077,45,293,1,6,1189,493,1,15,19,1
1,1,1,2,0.47671,90,294,1,3,812,501,1,15,19,1
1,1,1,3,0.32873,35,295,1,2,827,596,1,15,19,1
1,2,2,3,0.51301,100,296,1,7,1181,634,1,15,19,1
1,1,1,2,0.85378,35,297,1,3,751,501,1,15,19,1
1,1,1,1,1.0757,80,298,1,4,859,455,1,15,19,1
1,2,2,1,0.4158,80,299,1,5,1091,396,1,15,19,1
1,2,2,3,0.68124,35,300,1,6,1179,493,0,15,19,1
1,1,1,2,0.38828,80,301,1,2,735,594,0,15,19,1
1,2,2,3,0.71892,100,302,1,6,1200,489,0,15,19,1
1,1,1,2,0.76737,90,303,1,2,702,611,0,15,19,1
1,2,2,2,0.72804,35,304,1,7,1149,612,0,15,19,1
1,2,1,2,0.86596,80,305,0,2,684,590,0,15,19,1
1,2,2,2,0.60135,80,306,1,7,1176,599,0,15,19,1
1,2,1,1,0.71738,90,307,0,1,852,675,0,15,19,1
1,1,1,2,0.4518,80,308,1,2,774,598,0,15,19,1
1,1,1,4,0.4111,0,309,1,4,860,394,0,15,19,1
1,1,1,3,0.53076,35,310,1,3,713,498,0,15,19,1
1,1,1,2,0.55451,100,311,1,2,828,607,0,15,19,1
1,1,1,2,0.46624,80,312,1,2,888,569,0,15,19,1
1,1,1,3,0.76267,45,313,1,3,800,500,0,15,19,1
1,1,1,3,0.82156,45,314,1,3,826,521,0,15,19,1
1,1,1,4,0.44798,35,315,1,4,872,406,0,15,19,1
1,2,2,4,0.69229,35,316,1,5,1119,446,0,15,19,1
1,1,1,2,0.50767,90,317,1,2,788,574,0,15,19,1
1,1,1,2,1.2407,80,318,1,2,759,652,0,15,19,1
1,2,2,2,0.44908,70,319,1,7,1198,595,0,15,19,1
1,1,1,4,0.27607,0,320,1,4,806,395,0,15,19,1
1,1,2,1,0.74015,60,321,0,8,1114,704,0,15,19,1
1,1,1,1,0.44751,80,322,1,1,871,639,0,15,19,1
1,1,1,2,1.1795,35,323,1,2,758,583,0,15,19,1
1,1,1,2,0.73957,90,324,1,2,837,588,0,15,19,1
1,1,1,2,0.51821,90,325,1,2,757,613,0,15,19,1
1,1,1,2,0.66958,60,326,1,2,724,614,0,15,19,1
1,1,2,2,0.46889,100,327,0,7,1234,633,0,15,19,1
1,1,1,4,0.50953,0,328,1,4,845,369,0,15,19,1
1,1,1,1,0.61031,60,329,1,1,796,734,0,15,19,1
1,1,2,1,0.78837,100,330,0,8,1108,683,0,15,19,1
1,2,2,2,0.7931,80,331,1,7,1170,629,0,15,19,1
1,1,1,4,0.35729,0,332,1,4,838,359,0,15,19,1
1,2,2,1,0.50307,80,333,1,8,1136,736,0,15,19,1
1,2,2,4,1.0834,0,334,1,5,1108,379,0,15,19,1
1,2,2,4,1.2245,0,335,1,5,1097,416,0,15,19,1
1,1,1,2,0.82978,90,336,1,2,713,592,0,15,19,1
1,2,2,2,0.87792,35,337,1,7,1193,612,0,15,19,1
1,2,2,3,0.70891,35,338,1,6,1129,498,0,15,19,1
1,2,2,2,0.41063,70,339,1,7,1106,579,0,15,19,1
1,2,2,1,0.69755,90,340,1,8,1117,744,0,15,19,1
1,1,1,2,0.96567,45,341,1,2,723,589,0,15,19,1
1,2,2,3,0.74809,0,342,1,6,1159,477,0,15,19,1
1,1,1,1,2.6373,100,343,1,1,806,769,0,15,19,1
1,2,2,1,0.48109,90,344,1,8,1150,651,0,15,19,1
1,2,2,2,0.51081,35,345,1,7,1113,610,0,15,19,1
1,2,2,1,1.3125,80,346,1,8,1123,722,0,15,19,1
1,2,2,2,0.60647,70,347,1,7,1083,583,0,15,19,1
1,2,2,2,0.4985,45,348,1,7,1146,604,0,15,19,1
1,1,1,3,0.8786,35,349,1,3,735,494,0,15,19,1
1,1,1,1,27.231,90,350,1,1,783,695,0,15,19,1
1,2,2,3,1.1655,35,351,1,6,1226,446,0,15,19,1
1,1,1,2,0.37143,60,352,1,2,730,619,0,15,19,1
1,1,1,2,0.66668,45,353,1,2,745,621,0,15,19,1
1,2,2,2,0.36208,60,354,1,7,1200,613,0,15,19,1
1,1,1,1,1.3018,90,355,1,1,783,698,0,15,19,1
1,1,1,1,0.51415,70,356,1,1,875,631,0,15,19,1
1,1,1,4,0.40558,0,357,1,4,855,395,0,15,19,1
1,1,1,4,0.55683,0,358,1,4,839,420,0,15,19,1
1,1,1,1,0.94967,80,359,1,1,873,651,0,15,19,1
1,2,2,1,1.5109,80,360,1,8,1047,619,0,15,19,1
1,1,1,2,1.6277,80,361,1,2,780,630,0,15,19,1
1,1,1,4,0.43773,0,362,1,4,834,360,0,15,19,1
1,2,2,2,0.91347,70,363,1,7,1217,622,0,15,19,1
1,1,1,2,0.55635,90,364,1,2,709,619,0,15,19,1
1,2,2,3,1.289,45,365,1,6,1221,501,0,15,19,1
1,1,1,2,0.82472,60,366,1,2,748,595,0,15,19,1
1,2,1,2,0.63076,80,367,0,2,812,609,0,15,19,1
1,1,1,2,0.57051,35,368,1,2,720,544,0,15,19,1
1,1,1,2,0.99618,90,369,1,2,741,599,0,15,19,1
1,1,1,2,0.4905,70,370,1,2,728,620,0,15,19,1
1,1,1,4,0.80885,0,371,1,4,794,359,0,15,19,1
1,2,2,4,0.62787,0,372,1,5,1117,429,0,15,19,1
1,1,1,3,1.029,45,373,1,3,732,483,0,15,19,1
1,1,1,2,0.815,70,374,1,2,773,606,0,15,19,1
1,2,2,2,1.3266,0,375,1,7,1202,625,0,15,19,1
1,2,1,1,0.54757,80,376,0,1,814,735,0,15,19,1
1,1,1,2,0.55507,100,377,1,2,809,593,0,15,19,1
1,2,2,2,0.53107,80,378,1,7,1161,634,0,15,19,1
1,2,2,2,1.0878,35,379,1,7,1141,604,0,15,19,1
1,1,1,1,0.64453,90,380,1,1,795,704,0,15,19,1
1,1,1,1,1.9434,100,381,1,1,809,728,0,15,19,1
1,2,2,1,1.1071,60,382,1,8,1185,692,0,15,19,1
1,2,2,3,0.78988,0,383,1,6,1143,483,0,15,19,1
1,2,2,1,0.66816,45,384,1,8,1110,754,0,15,19,1
1,1,1,2,0.52665,60,385,1,2,742,602,0,15,19,1
1,1,1,3,0.49694,0,386,1,3,724,501,0,15,19,1
1,1,1,3,0.64631,80,387,1,3,771,527,0,15,19,1
1,1,1,3,1.5337,35,388,1,3,880,523,0,15,19,1
1,1,1,2,1.7626,45,389,1,2,723,633,0,15,19,1
1,2,2,1,3.7504,0,390,1,8,1125,738,0,15,19,1
1,2,1,1,0.57544,100,391,0,1,815,704,0,15,19,1
1,2,1,2,0.78089,100,392,0,2,786,607,0,15,19,1
1,2,1,2,1.0735,80,393,0,2,736,617,0,15,19,1
1,2,2,1,3.5999,60,394,1,8,1123,754,0,15,19,1
1,2,2,1,4.08,45,395,1,8,1140,697,0,15,19,1
1,1,1,3,0.61104,0,396,1,3,733,486,0,15,19,1
1,1,1,2,7.7672,35,397,1,2,787,634,0,15,19,1
1,1,1,2,0.75993,60,398,1,2,755,594,0,15,19,1
1,1,1,1,0.40252,70,399,1,1,810,711,0,15,19,1
1,2,2,3,1.0418,35,400,1,7,1196,609,1,15,19,1
1,2,1,3,0.5352,35,401,0,2,790,542,1,15,19,1
1,1,1,3,0.41913,35,402,1,2,755,583,1,15,19,1
1,2,2,2,0.72953,90,403,1,6,1199,497,1,15,19,1
1,2,2,3,0.56559,35,404,1,7,1155,623,1,15,19,1
1,2,1,2,0.65832,80,405,0,3,736,501,1,15,19,1
1,2,1,2,0.58299,60,406,0,3,744,510,1,15,19,1
1,1,1,2,0.56271,60,407,1,3,770,516,1,15,19,1
1,2,2,3,0.94966,90,408,1,7,1202,575,1,15,19,1
1,1,1,3,0.40275,80,409,1,2,730,620,1,15,19,1
1,2,2,2,0.5551,60,410,1,6,1195,511,1,15,19,1
1,1,1,2,0.50107,90,411,1,3,693,493,1,15,19,1
1,1,2,2,0.43631,70,412,0,6,1230,482,1,15,19,1
1,1,1,2,0.50407,35,413,1,3,694,484,1,15,19,1
1,2,2,3,0.61614,100,414,1,7,1228,593,1,15,19,1
1,1,1,2,0.3709,45,415,1,3,768,480,1,15,19,1
1,2,1,2,0.52816,90,416,0,3,751,482,1,15,19,1
1,1,1,2,0.45529,90,417,1,3,750,514,1,15,19,1
1,1,2,2,0.3922,80,418,0,6,1239,486,1,15,19,1
1,2,1,1,0.58758,60,419,0,4,810,347,1,15,19,1
1,1,2,1,0.70034,90,420,0,5,1088,411,1,15,19,1
1,1,1,1,0.59359,70,421,1,4,792,327,1,15,19,1
1,1,2,1,0.60597,70,422,0,5,1137,344,1,15,19,1
1,2,2,1,0.70878,90,423,1,5,1112,391,1,15,19,1
1,2,2,1,0.5708,70,424,1,5,1189,402,1,15,19,1
1,2,1,1,1.2151,100,425,0,4,793,338,1,15,19,1
1,2,1,2,0.79355,100,426,0,3,725,478,1,15,19,1
1,2,1,2,0.94657,100,427,0,3,719,483,1,15,19,1
1,2,2,3,0.93511,45,428,1,7,1226,604,1,15,19,1
1,2,2,2,0.65393,80,429,1,6,1178,477,1,15,19,1
1,2,2,2,0.53794,45,430,1,6,1161,505,1,15,19,1
1,2,1,2,0.62165,80,431,0,3,715,512,1,15,19,1
1,2,1,1,0.76936,80,432,0,4,812,356,1,15,19,1
1,2,2,4,0.97461,0,433,1,8,1133,728,1,15,19,1
1,2,1,2,0.78478,45,434,0,3,727,473,1,15,19,1
1,2,2,4,0.46774,0,435,1,8,1152,718,1,15,19,1
1,1,1,4,0.42498,0,436,1,1,769,741,1,15,19,1
1,1,1,2,0.80606,70,437,1,3,700,534,1,15,19,1
1,2,2,2,0.57574,70,438,1,6,1225,498,1,15,19,1
1,2,2,1,0.65777,70,439,1,5,1110,375,1,15,19,1
1,2,1,1,0.53484,60,440,0,4,771,355,1,15,19,1
1,1,1,2,0.68661,60,441,1,3,769,489,1,15,19,1
1,1,1,2,0.53028,70,442,1,3,714,515,1,15,19,1
1,2,1,2,0.46932,100,443,0,3,748,512,1,15,19,1
1,1,1,4,0.82994,0,444,1,1,789,744,1,15,19,1
1,1,1,4,1.2327,0,445,1,1,812,745,1,15,19,1
1,1,1,4,5.4616,0,446,1,1,769,725,1,15,19,1
1,2,2,2,4.5248,35,447,1,6,1232,508,1,15,19,1
1,2,1,1,0.90985,100,448,0,4,820,350,1,15,19,1
1,1,1,1,0.46593,100,449,1,4,824,399,1,15,19,1
1,2,2,3,0.4785,35,450,1,7,1234,602,1,15,19,1
1,1,1,2,0.38493,70,451,1,3,750,467,1,15,19,1
1,2,2,2,0.61766,70,452,1,6,1195,474,1,15,19,1
1,1,1,2,0.3811,80,453,1,3,705,473,1,15,19,1
1,1,1,3,1.301,0,454,1,2,746,630,1,15,19,1
1,1,1,2,0.52105,90,455,1,3,787,482,1,15,19,1
1,2,2,2,0.49851,90,456,1,6,1182,479,1,15,19,1
1,1,1,4,0.77636,0,457,1,1,808,729,1,15,19,1
1,2,2,3,0.60789,80,458,1,7,1172,622,1,15,19,1
1,2,2,2,3.6763,90,459,1,6,1175,487,1,15,19,1
1,1,1,2,0.33881,70,460,1,3,708,485,1,15,19,1
1,2,2,2,1.347,70,461,1,6,1208,491,1,15,19,1
1,2,2,1,0.51857,45,462,1,5,1091,416,1,15,19,1
1,1,1,2,0.894,60,463,1,3,714,474,1,15,19,1
1,1,1,4,0.9276,0,464,1,1,784,746,1,15,19,1
1,1,1,1,0.49871,45,465,1,4,800,409,1,15,19,1
1,2,2,1,0.41967,70,466,1,5,1148,376,1,15,19,1
1,2,2,2,0.57038,35,467,1,6,1175,487,1,15,19,1
1,2,2,2,0.5968,45,468,1,6,1164,505,1,15,19,1
1,2,2,2,0.49615,100,469,1,6,1169,484,1,15,19,1
1,2,1,2,0.74883,100,470,0,3,790,505,1,15,19,1
1,1,1,3,0.47779,0,471,1,2,749,616,1,15,19,1
1,2,2,2,1.1158,90,472,1,6,1225,511,1,15,19,1
1,2,2,2,0.45183,45,473,1,6,1205,534,1,15,19,1
1,2,1,2,0.65426,90,474,0,3,754,502,1,15,19,1
1,2,2,2,0.79914,100,475,1,6,1159,510,1,15,19,1
1,2,2,2,0.47227,60,476,1,6,1174,501,1,15,19,1
1,2,1,1,0.47131,70,477,0,4,823,374,1,15,19,1
1,1,1,2,0.52302,45,478,1,3,734,498,1,15,19,1
1,1,1,4,0.43301,0,479,1,1,812,704,1,15,19,1
1,2,2,3,0.49671,70,480,1,7,1184,588,1,15,19,1
1,2,1,1,0.47331,100,481,0,4,760,341,1,15,19,1
1,2,2,4,0.49336,0,482,1,8,1117,717,1,15,19,1
1,1,1,2,0.43482,100,483,1,3,712,504,1,15,19,1
1,1,2,2,0.38283,90,484,0,6,1198,485,1,15,19,1
1,2,2,3,0.42548,35,485,1,7,1157,604,1,15,19,1
1,2,2,4,0.49167,0,486,1,8,1114,709,1,15,19,1
1,2,1,2,0.54429,90,487,0,3,719,464,1,15,19,1
1,1,1,2,0.42458,80,488,1,3,821,511,1,15,19,1
1,1,1,2,0.36493,70,489,1,3,718,462,1,15,19,1
1,2,2,2,0.46431,80,490,1,6,1211,474,1,15,19,1
1,2,2,1,0.63059,90,491,1,5,1123,386,1,15,19,1
1,2,1,1,0.44837,100,492,0,4,786,336,1,15,19,1
1,2,2,1,0.54666,70,493,1,5,1098,379,1,15,19,1
1,2,2,1,0.6891,90,494,1,5,1132,375,1,15,19,1
1,2,2,2,0.58775,60,495,1,6,1193,504,1,15,19,1
1,2,2,2,0.46477,80,496,1,6,1137,498,1,15,19,1
1,2,2,2,0.46019,70,497,1,6,1189,480,1,15,19,1
1,1,1,2,0.43113,60,498,1,3,727,484,1,15,19,1
1,2,2,2,0.5518,45,499,1,6,1190,483,1,15,19,1
1,1,1,1,1.1134,100,500,1,1,784,710,0,15,19,1
1,2,2,1,0.37259,45,501,1,8,1154,726,0,15,19,1
1,2,2,2,0.56968,45,502,1,7,1145,603,0,15,19,1
1,2,2,3,1.748,0,503,1,6,1182,455,0,15,19,1
1,2,1,1,0.61204,60,504,0,1,798,698,0,15,19,1
1,2,1,2,0.54708,80,505,0,2,775,596,0,15,19,1
1,2,2,2,0.5705,70,506,1,7,1214,614,0,15,19,1
1,2,2,1,0.57718,90,507,1,8,1063,666,0,15,19,1
1,1,1,2,0.45711,60,508,1,2,749,651,0,15,19,1
1,1,1,2,0.34693,60,509,1,2,756,592,0,15,19,1
1,2,2,2,0.80031,100,510,1,7,1185,649,0,15,19,1
1,2,1,1,0.45149,100,511,0,1,772,743,0,15,19,1
1,2,2,4,0.45452,0,512,1,5,1144,385,0,15,19,1
1,2,2,2,0.56263,45,513,1,7,1156,591,0,15,19,1
1,1,1,2,0.58526,80,514,1,2,692,601,0,15,19,1
1,1,2,1,0.51938,80,515,0,8,1126,687,0,15,19,1
1,1,2,1,0.69666,100,516,0,8,1050,666,0,15,19,1
1,2,2,2,0.45115,60,517,1,7,1105,574,0,15,19,1
1,2,2,2,0.71446,90,518,1,7,1096,582,0,15,19,1
1,2,1,1,0.90205,100,519,0,1,855,705,0,15,19,1
1,1,1,1,0.50019,100,520,1,1,810,629,0,15,19,1
1,1,1,1,0.44246,70,521,1,1,820,642,0,15,19,1
1,2,2,1,0.58781,90,522,1,8,1085,713,0,15,19,1
1,1,1,2,0.45661,90,523,1,2,771,609,0,15,19,1
1,1,1,2,0.43952,80,524,1,2,792,574,0,15,19,1
1,2,2,1,0.9089,60,525,1,8,1121,675,0,15,19,1
1,1,1,2,0.37991,70,526,1,2,751,606,0,15,19,1
1,1,1,2,0.50704,90,527,1,2,808,589,0,15,19,1
1,1,1,3,0.52567,35,528,1,3,745,484,0,15,19,1
1,1,1,2,1.5929,90,529,1,2,705,574,0,15,19,1
1,1,1,2,1.1564,80,530,1,2,706,578,0,15,19,1
1,1,1,3,0.47003,60,531,1,3,789,494,0,15,19,1
1,1,1,2,0.64553,70,532,1,2,721,567,0,15,19,1
1,1,1,4,0.64603,0,533,1,4,845,376,0,15,19,1
1,2,2,2,0.50045,70,534,1,7,1213,621,0,15,19,1
1,2,1,1,0.64847,90,535,0,1,777,712,0,15,19,1
1,1,1,2,1.2759,35,536,1,2,702,578,0,15,19,1
1,1,1,2,0.44096,100,537,1,2,780,572,0,15,19,1
1,2,2,2,0.96126,35,538,1,7,1229,594,0,15,19,1
1,1,1,3,0.58625,35,539,1,3,719,530,0,15,19,1
1,1,2,2,0.70997,90,540,0,7,1242,607,0,15,19,1
1,1,1,4,0.38599,0,541,1,4,810,394,0,15,19,1
1,1,2,1,0.36495,80,542,0,8,1169,710,0,15,19,1
1,1,1,2,0.53837,60,543,1,2,697,578,0,15,19,1
1,2,2,2,0.58543,45,544,1,7,1216,598,0,15,19,1
1,1,1,2,0.52308,70,545,1,2,679,574,0,15,19,1
1,2,2,2,0.39816,60,546,1,7,1148,576,0,15,19,1
1,2,2,4,0.64153,0,547,1,5,1106,410,0,15,19,1
1,2,1,2,0.6398,70,548,0,2,711,595,0,15,19,1
1,2,2,2,0.31656,90,549,1,7,1172,584,0,15,19,1
1,2,2,2,0.58393,35,550,1,7,1186,613,0,15,19,1
1,1,1,4,0.40853,0,551,1,4,778,379,0,15,19,1
1,1,2,2,1.1803,70,552,0,7,1230,641,0,15,19,1
1,1,1,2,0.47067,35,553,1,2,703,570,0,15,19,1
1,2,2,2,0.34401,45,554,1,7,1114,607,0,15,19,1
1,1,1,2,0.38944,45,555,1,2,765,566,0,15,19,1
1,1,2,2,0.44008,80,556,0,7,1201,608,0,15,19,1
1,1,1,1,0.37742,80,557,1,1,794,670,0,15,19,1
1,1,1,2,0.51045,45,558,1,2,839,565,0,15,19,1
1,1,1,1,0.6214,80,559,1,1,815,676,0,15,19,1
1,1,2,1,0.47874,100,560,0,8,1082,632,0,15,19,1
1,2,2,1,0.61587,90,561,1,8,1087,654,0,15,19,1
1,2,2,2,0.57058,45,562,1,7,1109,597,0,15,19,1
1,2,2,1,0.4718,100,563,1,8,1149,718,0,15,19,1
1,2,1,1,0.52722,70,564,0,1,784,713,0,15,19,1
1,1,1,2,0.51588,45,565,1,2,807,587,0,15,19,1
1,1,1,2,0.44561,60,566,1,2,785,615,0,15,19,1
1,2,2,3,1.468,0,567,1,6,1190,502,0,15,19,1
1,2,2,2,0.48227,60,568,1,7,1142,606,0,15,19,1
1,2,2,3,1.144,0,569,1,6,1211,502,0,15,19,1
1,2,2,4,0.66767,0,570,1,5,1172,347,0,15,19,1
1,2,2,3,0.64207,45,571,1,6,1158,511,0,15,19,1
1,1,1,2,0.52248,100,572,1,2,735,609,0,15,19,1
1,2,2,3,1.1408,45,573,1,6,1209,498,0,15,19,1
1,2,2,4,0.49506,0,574,1,5,1135,347,0,15,19,1
1,1,1,3,0.49154,35,575,1,3,729,524,0,15,19,1
1,1,1,2,0.71223,45,576,1,2,712,618,0,15,19,1
1,2,2,3,0.59691,35,577,1,6,1210,465,0,15,19,1
1,1,1,1,0.62028,80,578,1,1,786,701,0,15,19,1
1,2,2,1,0.44787,80,579,1,8,1118,709,0,15,19,1
1,1,1,1,0.83091,100,580,1,1,733,710,0,15,19,1
1,2,2,1,0.51088,90,581,1,8,1087,703,0,15,19,1
1,1,1,1,0.57662,100,582,1,1,779,751,0,15,19,1
1,2,2,2,0.45373,45,583,1,7,1144,623,0,15,19,1
1,1,1,1,0.36089,60,584,1,1,825,705,0,15,19,1
1,1,1,1,0.75549,90,585,1,1,871,693,0,15,19,1
1,1,1,1,0.43836,60,586,1,1,775,711,0,15,19,1
1,2,1,1,0.94611,80,587,0,1,854,684,0,15,19,1
1,2,2,1,0.77221,100,588,1,8,1054,664,0,15,19,1
1,1,1,1,0.71423,100,589,1,1,849,647,0,15,19,1
1,2,2,2,0.49588,100,590,1,7,1093,600,0,15,19,1
1,1,1,2,0.48222,45,591,1,2,746,610,0,15,19,1
1,2,2,4,0.52716,0,592,1,5,1130,365,0,15,19,1
1,2,1,2,0.73733,90,593,0,2,723,603,0,15,19,1
1,2,2,2,0.50297,100,594,1,7,1206,640,0,15,19,1
1,2,2,3,0.555,35,595,1,6,1179,494,0,15,19,1
1,1,1,3,0.3403,70,596,1,3,762,500,0,15,19,1
1,1,1,2,0.44676,90,597,1,2,756,612,0,15,19,1
1,2,2,3,0.36035,45,598,1,6,1229,461,0,15,19,1
1,1,1,3,0.36813,80,599,1,3,738,497,0,15,19,1
1,1,1,2,1.2226,60,600,1,3,736,497,1,15,19,1
1,1,1,2,6.8766,35,601,1,3,784,469,1,15,19,1
1,2,2,2,0.36867,45,602,1,6,1199,496,1,15,19,1
1,2,1,2,0.38302,90,603,0,3,694,495,1,15,19,1
1,2,2,1,0.712,90,604,1,5,1150,351,1,15,19,1
1,2,2,2,0.68476,45,605,1,6,1152,515,1,15,19,1
1,2,2,3,0.48647,0,606,1,7,1175,616,1,15,19,1
1,1,1,3,0.48542,45,607,1,2,733,640,1,15,19,1
1,2,2,4,0.41409,0,608,1,8,1154,733,1,15,19,1
1,1,1,4,0.43348,0,609,1,1,799,721,1,15,19,1
1,2,2,2,0.41354,45,610,1,6,1208,518,1,15,19,1
1,1,1,3,0.46253,60,611,1,2,757,601,1,15,19,1
1,1,1,3,0.44263,35,612,1,2,824,578,1,15,19,1
1,2,2,3,0.43388,0,613,1,7,1225,606,1,15,19,1
1,2,1,2,0.38349,60,614,0,3,677,491,1,15,19,1
1,1,1,3,0.58063,45,615,1,2,789,617,1,15,19,1
1,2,2,3,0.58536,70,616,1,7,1179,591,1,15,19,1
1,2,2,3,0.546,35,617,1,7,1174,631,1,15,19,1
1,1,1,3,0.42641,100,618,1,2,739,581,1,15,19,1
1,2,2,3,0.4175,90,619,1,7,1219,619,1,15,19,1
1,2,1,2,0.55711,70,620,0,3,701,500,1,15,19,1
1,1,1,2,0.38073,60,621,1,3,785,511,1,15,19,1
1,2,2,2,0.50646,45,622,1,6,1251,509,1,15,19,1
1,2,1,1,0.60154,45,623,0,4,807,402,1,15,19,1
1,1,1,2,0.4445,100,624,1,3,773,496,1,15,19,1
1,1,1,2,0.38291,100,625,1,3,805,524,1,15,19,1
1,2,2,3,0.39185,35,626,1,7,1225,624,1,15,19,1
1,1,1,3,1.0361,80,627,1,2,762,609,1,15,19,1
1,1,1,4,0.42625,0,628,1,1,815,677,1,15,19,1
1,1,1,3,0.48026,90,629,1,2,791,589,1,15,19,1
1,1,1,3,0.46624,35,630,1,2,718,594,1,15,19,1
1,2,2,4,0.54794,0,631,1,8,1112,749,1,15,19,1
1,2,1,2,0.49707,90,632,0,3,749,483,1,15,19,1
1,1,1,3,0.47133,35,633,1,2,758,618,1,15,19,1
1,1,1,2,0.53783,100,634,1,3,783,510,1,15,19,1
1,1,1,2,0.40481,45,635,1,3,740,496,1,15,19,1
1,2,2,1,0.57973,60,636,1,5,1176,405,1,15,19,1
1,1,1,2,0.86291,60,637,1,3,739,457,1,15,19,1
1,2,1,1,0.54386,70,638,0,4,887,447,1,15,19,1
1,1,1,4,0.43718,0,639,1,1,803,740,1,15,19,1
1,2,2,1,0.88671,70,640,1,5,1163,376,1,15,19,1
1,1,1,1,0.47885,90,641,1,4,793,431,1,15,19,1
1,2,1,1,0.57795,100,642,0,4,823,432,1,15,19,1
1,2,2,2,0.63199,45,643,1,6,1202,495,1,15,19,1
1,1,1,2,0.42098,70,644,1,3,767,492,1,15,19,1
1,2,2,2,0.90337,70,645,1,6,1177,503,1,15,19,1
1,1,1,2,0.68966,45,646,1,3,725,504,1,15,19,1
1,1,2,1,0.56699,60,647,0,5,1136,369,1,15,19,1
1,2,2,1,0.61343,90,648,1,5,1065,401,1,15,19,1
1,1,1,1,0.9532,45,649,1,4,786,377,1,15,19,1
1,1,1,1,0.50849,100,650,1,4,758,412,1,15,19,1
1,1,1,2,0.59513,70,651,1,3,694,509,1,15,19,1
1,2,2,2,0.63185,70,652,1,6,1184,518,1,15,19,1
1,1,2,1,0.82551,70,653,0,5,1085,375,1,15,19,1
1,1,1,2,0.45151,45,654,1,3,694,497,1,15,19,1
1,1,2,1,0.81982,80,655,0,5,1169,370,1,15,19,1
1,1,1,2,0.46327,45,656,1,3,724,502,1,15,19,1
1,2,2,2,0.48498,70,657,1,6,1120,476,1,15,19,1
1,2,1,2,0.38397,90,658,0,3,712,506,1,15,19,1
1,1,2,2,0.60973,90,659,0,6,1225,508,1,15,19,1
1,1,1,2,0.72645,60,660,1,3,735,468,1,15,19,1
1,1,1,1,0.97077,100,661,1,4,842,409,1,15,19,1
1,2,1,1,1.1611,100,662,0,4,848,387,1,15,19,1
1,2,2,3,0.48482,0,663,1,7,1182,638,1,15,19,1
1,2,1,2,0.55183,90,664,0,3,781,492,1,15,19,1
1,2,2,1,0.97878,60,665,1,5,1095,380,1,15,19,1
1,2,1,1,0.59592,100,666,0,4,791,418,1,15,19,1
1,2,2,1,0.9366,60,667,1,5,1173,413,1,15,19,1
1,2,2,2,0.44423,45,668,1,6,1140,510,1,15,19,1
1,2,1,1,0.41693,70,669,0,4,790,357,1,15,19,1
1,2,1,1,0.46533,90,670,0,4,838,424,1,15,19,1
1,1,2,1,1.0779,80,671,0,5,1159,389,1,15,19,1
1,1,1,4,0.36994,0,672,1,1,775,725,1,15,19,1
1,2,2,2,0.59539,100,673,1,6,1195,495,1,15,19,1
1,1,1,3,0.38804,35,674,1,2,738,627,1,15,19,1
1,2,2,3,0.44471,70,675,1,7,1171,601,1,15,19,1
1,2,2,2,0.51214,60,676,1,6,1143,474,1,15,19,1
1,2,2,3,0.5309,35,677,1,7,1206,582,1,15,19,1
1,1,1,2,0.65278,100,678,1,3,726,482,1,15,19,1
1,2,2,4,0.47282,0,679,1,8,1084,721,1,15,19,1
1,2,2,4,0.44188,0,680,1,8,1074,658,1,15,19,1
1,1,1,2,0.48853,45,681,1,3,707,491,1,15,19,1
1,1,1,3,0.36027,35,682,1,2,791,591,1,15,19,1
1,2,2,2,0.72976,60,683,1,6,1199,485,1,15,19,1
1,1,1,2,0.33032,100,684,1,3,747,486,1,15,19,1
1,2,1,2,0.64333,80,685,0,3,722,502,1,15,19,1
1,1,1,3,0.5307,45,686,1,2,789,629,1,15,19,1
1,1,1,2,0.53274,100,687,1,3,782,496,1,15,19,1
1,2,1,2,0.61431,80,688,0,3,761,498,1,15,19,1
1,2,2,2,0.32307,45,689,1,6,1144,498,1,15,19,1
1,1,1,2,0.50411,80,690,1,3,765,486,1,15,19,1
1,1,1,3,0.74909,35,691,1,2,718,632,1,15,19,1
1,2,2,2,0.57822,70,692,1,6,1184,472,1,15,19,1
1,2,2,1,1.1085,100,693,1,5,1133,357,1,15,19,1
1,1,1,3,0.46123,35,694,1,2,781,605,1,15,19,1
1,2,2,2,0.50526,45,695,1,6,1135,499,1,15,19,1
1,1,1,2,0.59629,80,696,1,3,703,499,1,15,19,1
1,2,2,3,0.71168,100,697,1,7,1212,603,1,15,19,1
1,2,2,3,0.51667,60,698,1,7,1157,585,1,15,19,1
1,2,2,2,0.50698,45,699,1,6,1159,507,1,15,19,1
1,1,1,1,1.4501,90,700,1,1,824,734,0,15,19,1
1,1,1,1,0.48724,80,701,1,1,831,676,0,15,19,1
1,1,1,2,0.39925,60,702,1,2,767,628,0,15,19,1
1,2,2,3,0.44654,35,703,1,6,1195,498,0,15,19,1
1,1,1,3,0.44699,45,704,1,3,709,470,0,15,19,1
1,1,2,2,0.82637,80,705,0,7,1184,654,0,15,19,1
1,2,2,2,0.4883,60,706,1,7,1112,580,0,15,19,1
1,1,1,4,0.527,0,707,1,4,780,378,0,15,19,1
1,1,1,3,0.48935,35,708,1,3,772,492,0,15,19,1
1,1,1,1,0.82403,80,709,1,1,819,687,0,15,19,1
1,1,2,2,1.5532,60,710,0,7,1182,629,0,15,19,1
1,2,2,2,0.61514,35,711,1,7,1103,571,0,15,19,1
1,1,1,1,0.60441,70,712,1,1,828,691,0,15,19,1
1,1,2,1,0.58181,70,713,0,8,1078,670,0,15,19,1
1,2,2,2,0.40856,35,714,1,7,1113,587,0,15,19,1
1,2,1,2,0.49923,60,715,0,2,807,595,0,15,19,1
1,1,1,1,0.51762,90,716,1,1,850,658,0,15,19,1
1,1,1,1,0.56991,60,717,1,1,852,655,0,15,19,1
1,1,1,1,1.9763,35,718,1,1,784,728,0,15,19,1
1,1,1,2,0.54173,60,719,1,2,754,569,0,15,19,1
1,2,2,2,0.51797,45,720,1,7,1176,637,0,15,19,1
1,1,1,2,0.40934,60,721,1,2,730,611,0,15,19,1
1,1,1,1,0.45609,70,722,1,1,794,663,0,15,19,1
1,2,2,1,0.46373,80,723,1,8,1130,707,0,15,19,1
1,2,1,1,1.5923,100,724,0,1,812,728,0,15,19,1
1,1,1,1,0.69873,100,725,1,1,823,694,0,15,19,1
1,1,1,2,0.48084,45,726,1,2,770,570,0,15,19,1
1,1,1,2,0.49782,45,727,1,2,824,601,0,15,19,1
1,2,2,2,0.69292,45,728,1,7,1168,610,0,15,19,1
1,2,2,2,1.4073,100,729,1,7,1118,584,0,15,19,1
1,1,1,2,0.94131,45,730,1,2,736,584,0,15,19,1
1,2,2,2,0.52761,90,731,1,7,1214,629,0,15,19,1
1,1,1,3,0.31803,45,732,1,3,753,462,0,15,19,1
1,1,1,3,0.48436,35,733,1,3,810,508,0,15,19,1
1,2,2,2,0.37006,60,734,1,7,1165,600,0,15,19,1
1,2,2,2,0.80873,70,735,1,7,1124,619,0,15,19,1
1,2,2,4,0.88434,0,736,1,5,1155,327,0,15,19,1
1,1,1,4,0.5991,0,737,1,4,809,401,0,15,19,1
1,1,1,4,0.47627,35,738,1,4,818,412,0,15,19,1
1,2,2,2,0.7955,80,739,1,7,1112,602,0,15,19,1
1,1,1,3,0.50983,45,740,1,3,762,502,0,15,19,1
1,2,1,1,0.77257,90,741,0,1,839,687,0,15,19,1
1,1,1,4,0.43697,35,742,1,4,858,403,0,15,19,1
1,2,2,1,0.66363,90,743,1,8,1108,655,0,15,19,1
1,2,2,1,2.3825,100,744,1,8,1129,711,0,15,19,1
1,1,1,1,0.60027,80,745,1,1,845,720,0,15,19,1
1,2,2,2,0.57532,90,746,1,7,1153,616,0,15,19,1
1,2,1,1,0.49835,100,747,0,1,801,719,0,15,19,1
1,1,1,2,0.54473,70,748,1,2,766,575,0,15,19,1
1,2,1,1,0.60809,80,749,0,1,797,744,0,15,19,1
1,1,2,1,0.55505,80,750,0,8,1127,722,0,15,19,1
1,2,2,1,0.89803,80,751,1,8,1025,625,0,15,19,1
1,1,1,2,0.35318,70,752,1,2,759,590,0,15,19,1
1,2,2,2,0.50348,60,753,1,7,1093,581,0,15,19,1
1,1,1,2,0.60159,45,754,1,2,709,582,0,15,19,1
1,1,2,2,0.44355,100,755,0,7,1183,631,0,15,19,1
1,2,1,2,0.49516,100,756,0,2,695,605,0,15,19,1
1,1,1,2,0.58162,70,757,1,2,812,563,0,15,19,1
1,2,2,3,0.6064,35,758,1,6,1162,515,0,15,19,1
1,2,2,4,0.59935,0,759,1,5,1050,454,0,15,19,1
1,2,2,4,0.89633,0,760,1,5,1074,407,0,15,19,1
1,1,1,3,0.72005,90,761,1,3,732,501,0,15,19,1
1,2,1,1,1.3574,60,762,0,1,810,708,0,15,19,1
1,2,2,3,0.43912,35,763,1,6,1186,472,0,15,19,1
1,2,2,3,0.33752,35,764,1,6,1171,505,0,15,19,1
1,2,2,3,0.64439,35,765,1,6,1238,476,0,15,19,1
1,1,1,1,0.45072,80,766,1,1,768,707,0,15,19,1
1,2,2,1,0.41287,90,767,1,8,1129,638,0,15,19,1
1,2,2,1,0.9246,60,768,1,8,1078,695,0,15,19,1
1,2,2,2,0.5109,45,769,1,7,1119,606,0,15,19,1
1,1,1,1,0.76459,60,770,1,1,809,711,0,15,19,1
1,1,1,2,0.70297,60,771,1,2,760,569,0,15,19,1
1,1,1,4,0.66037,0,772,1,4,874,418,0,15,19,1
1,1,1,1,1.1263,100,773,1,1,843,633,0,15,19,1
1,2,2,2,1.3274,60,774,1,7,1178,650,0,15,19,1
1,1,1,1,2.2062,90,775,1,1,824,742,0,15,19,1
1,1,1,3,1.2535,45,776,1,3,712,513,0,15,19,1
1,1,1,3,0.35348,35,777,1,3,739,501,0,15,19,1
1,2,2,3,0.56657,45,778,1,6,1184,506,0,15,19,1
1,2,1,1,0.76516,60,779,0,1,772,691,0,15,19,1
1,1,1,1,0.47458,90,780,1,1,886,645,0,15,19,1
1,1,1,4,0.43396,0,781,1,4,804,383,0,15,19,1
1,1,1,3,0.47357,35,782,1,3,739,488,0,15,19,1
1,2,2,1,0.56657,100,783,1,8,1145,706,0,15,19,1
1,1,1,2,0.52603,45,784,1,2,735,599,0,15,19,1
1,2,2,3,0.47637,45,785,1,6,1191,513,0,15,19,1
1,1,1,2,0.52436,100,786,1,2,731,580,0,15,19,1
1,2,2,1,0.48061,80,787,1,8,1112,757,0,15,19,1
1,2,2,2,0.52132,45,788,1,7,1222,623,0,15,19,1
1,1,2,1,0.49782,70,789,0,8,1065,641,0,15,19,1
1,1,1,2,0.44689,70,790,1,2,760,604,0,15,19,1
1,1,1,1,0.49539,90,791,1,1,800,702,0,15,19,1
1,1,1,1,0.56579,90,792,1,1,862,686,0,15,19,1
1,1,1,3,0.73123,35,793,1,3,737,484,0,15,19,1
1,2,2,3,0.48621,35,794,1,6,1159,499,0,15,19,1
1,2,1,1,0.97116,80,795,0,1,800,753,0,15,19,1
1,1,1,4,0.78566,0,796,1,4,845,440,0,15,19,1
1,1,1,3,0.57661,45,797,1,3,705,484,0,15,19,1
1,2,2,1,0.51562,80,798,1,8,1128,657,0,15,19,1
1,1,1,2,0.54807,45,799,1,2,717,606,0,15,19,1
1,2,2,4,0.61225,0,800,1,5,1090,388,0,15,19,1
2,1,2,1,1.769,100,1,0,8,1093,681,0,16,29,1
2,1,1,4,0.58739,35,2,1,4,816,407,0,16,29,1
2,1,1,4,0.6705,0,3,1,4,842,420,0,16,29,1
2,2,2,2,1.1105,60,4,1,7,1161,583,0,16,29,1
2,1,1,2,1.4164,90,5,1,2,838,582,0,16,29,1
2,1,1,1,1.2978,90,6,1,1,820,668,0,16,29,1
2,2,2,1,1.0566,100,7,1,8,1131,698,0,16,29,1
2,2,2,4,0.8028,45,8,1,5,1060,380,0,16,29,1
2,1,1,2,1.813,80,9,1,2,859,586,0,16,29,1
2,2,2,4,0.66268,35,10,1,5,1112,383,0,16,29,1
2,1,2,2,2.2095,90,11,0,7,1143,593,0,16,29,1
2,1,2,2,1.6605,90,12,0,7,1145,604,0,16,29,1
2,2,2,4,0.54735,0,13,1,5,1110,391,0,16,29,1
2,2,2,3,1.5364,60,14,1,6,1148,521,0,16,29,1
2,2,2,4,0.71431,0,15,1,5,1092,381,0,16,29,1
2,1,1,4,0.6137,45,16,1,4,857,439,0,16,29,1
2,2,1,2,0.72015,90,17,0,2,828,596,0,16,29,1
2,2,2,4,0.66779,0,18,1,5,1116,400,0,16,29,1
2,2,1,1,1.0021,100,19,0,1,801,711,0,16,29,1
2,1,1,2,1.0833,60,20,1,2,839,547,0,16,29,1
2,1,1,1,1.3634,80,21,1,1,853,682,0,16,29,1
2,2,2,1,1.0571,70,22,1,8,1128,676,0,16,29,1
2,1,1,4,0.54179,0,23,1,4,861,403,0,16,29,1
2,1,2,1,2.2494,60,24,0,8,1109,659,0,16,29,1
2,2,1,1,1.6256,60,25,0,1,835,674,0,16,29,1
2,1,1,1,0.93765,45,26,1,1,882,655,0,16,29,1
2,1,1,2,1.3936,60,27,1,2,825,601,0,16,29,1
2,1,2,1,0.66404,100,28,0,8,1124,681,0,16,29,1
2,1,2,1,1.1635,80,29,0,8,1125,660,0,16,29,1
2,2,2,1,1.7822,80,30,1,8,1098,688,0,16,29,1
2,1,1,1,2.0199,70,31,1,1,855,678,0,16,29,1
2,1,1,2,1.2073,35,32,1,2,828,598,0,16,29,1
2,2,2,1,0.73042,90,33,1,8,1138,678,0,16,29,1
2,2,1,1,0.8531,80,34,0,1,850,644,0,16,29,1
2,1,1,1,0.76633,60,35,1,1,825,681,0,16,29,1
2,1,1,1,1.8758,100,36,1,1,857,625,0,16,29,1
2,2,2,4,0.42398,0,37,1,5,1135,393,0,16,29,1
2,2,2,2,0.94428,45,38,1,7,1163,581,0,16,29,1
2,1,1,4,0.44175,35,39,1,4,848,406,0,16,29,1
2,2,2,1,0.8711,70,40,1,8,1071,636,0,16,29,1
2,1,1,1,1.5818,100,41,1,1,864,647,0,16,29,1
2,2,1,1,0.84255,80,42,0,1,900,591,0,16,29,1
2,1,1,2,1.2759,60,43,1,2,823,557,0,16,29,1
2,1,1,2,1.0973,60,44,1,2,835,563,0,16,29,1
2,2,2,3,1.1424,45,45,1,6,1184,497,0,16,29,1
2,2,2,1,1.3537,60,46,1,8,1053,645,0,16,29,1
2,1,1,4,0.60706,45,47,1,4,877,417,0,16,29,1
2,1,1,1,0.88386,80,48,1,1,851,634,0,16,29,1
2,1,1,1,1.3206,80,49,1,1,890,608,0,16,29,1
2,1,1,3,0.64227,45,50,1,3,789,488,0,16,29,1
2,2,2,3,0.72765,80,51,1,6,1140,511,0,16,29,1
2,2,1,1,1.8159,90,52,0,1,841,667,0,16,29,1
2,2,2,1,1.0444,70,53,1,8,1076,636,0,16,29,1
2,2,2,1,1.3899,70,54,1,8,1047,617,0,16,29,1
2,2,2,1,0.91522,80,55,1,8,1039,638,0,16,29,1
2,2,2,1,0.64491,80,56,1,8,1046,617,0,16,29,1
2,1,1,1,0.97924,100,57,1,1,848,691,0,16,29,1
2,1,1,1,1.3234,100,58,1,1,867,658,0,16,29,1
2,1,1,3,0.77979,45,59,1,3,810,483,0,16,29,1
2,2,2,3,0.69877,45,60,1,6,1146,492,0,16,29,1
2,1,1,3,1.0009,60,61,1,3,824,509,0,16,29,1
2,2,2,3,0.78619,70,62,1,6,1142,490,0,16,29,1
2,1,1,3,0.67792,45,63,1,3,821,507,0,16,29,1
2,1,1,2,1.0852,35,64,1,2,857,573,0,16,29,1
2,2,1,1,0.752,100,65,0,1,886,622,0,16,29,1
2,2,2,2,1.5341,45,66,1,7,1120,567,0,16,29,1
2,1,2,1,1.3101,100,67,0,8,1058,610,0,16,29,1
2,2,2,1,0.59985,90,68,1,8,1062,673,0,16,29,1
2,2,2,3,0.77694,35,69,1,6,1122,488,0,16,29,1
2,2,2,4,0.53231,0,70,1,5,1114,406,0,16,29,1
2,2,2,2,0.87506,60,71,1,7,1118,597,0,16,29,1
2,1,1,3,0.76917,45,72,1,3,834,505,0,16,29,1
2,1,1,2,0.86282,45,73,1,2,827,590,0,16,29,1
2,1,1,1,0.63948,60,74,1,1,885,594,0,16,29,1
2,1,1,1,0.76891,45,75,1,1,867,626,0,16,29,1
2,2,1,1,0.40556,70,76,0,1,850,633,0,16,29,1
2,2,1,1,1.2263,100,77,0,1,813,665,0,16,29,1
2,2,2,2,0.60143,45,78,1,7,1146,584,0,16,29,1
2,1,1,1,0.73766,80,79,1,1,903,617,0,16,29,1
2,1,1,4,0.59352,0,80,1,4,865,416,0,16,29,1
2,1,1,1,0.68882,80,81,1,1,845,675,0,16,29,1
2,1,1,3,0.70461,45,82,1,3,856,504,0,16,29,1
2,1,1,1,0.96365,70,83,1,1,863,639,0,16,29,1
2,2,1,1,0.90832,90,84,0,1,881,622,0,16,29,1
2,1,1,1,0.59004,60,85,1,1,904,595,0,16,29,1
2,1,1,1,0.90336,70,86,1,1,892,615,0,16,29,1
2,2,1,1,0.83648,80,87,0,1,832,662,0,16,29,1
2,1,1,1,0.67951,100,88,1,1,881,643,0,16,29,1
2,2,2,3,0.75267,45,89,1,6,1131,507,0,16,29,1
2,1,2,1,0.55597,80,90,0,8,1050,612,0,16,29,1
2,1,1,4,0.53661,0,91,1,4,853,425,0,16,29,1
2,1,2,1,0.59532,90,92,0,8,1074,701,0,16,29,1
2,2,2,1,0.59306,80,93,1,8,1062,627,0,16,29,1
2,1,2,1,0.53243,80,94,0,8,1085,644,0,16,29,1
2,2,2,1,0.63921,100,95,1,8,1042,658,0,16,29,1
2,1,1,3,0.4808,60,96,1,3,793,523,0,16,29,1
2,1,1,1,0.75057,90,97,1,1,858,631,0,16,29,1
2,2,1,1,0.91671,100,98,0,1,882,618,0,16,29,1
2,2,1,1,1.4993,70,99,0,1,896,608,0,16,29,1
2,2,1,1,1.9905,45,100,0,4,814,395,1,16,29,1
2,2,1,1,1.1408,90,101,0,4,847,403,1,16,29,1
2,2,2,4,1.2451,35,102,1,8,1173,702,1,16,29,1
2,1,1,4,0.63613,35,103,1,1,842,667,1,16,29,1
2,1,1,1,0.95065,80,104,1,4,896,447,1,16,29,1
2,2,2,1,0.83962,100,105,1,5,1081,402,1,16,29,1
2,1,1,4,0.68665,35,106,1,1,838,670,1,16,29,1
2,1,1,4,0.59198,0,107,1,1,874,665,1,16,29,1
2,1,1,4,0.4585,0,108,1,1,890,645,1,16,29,1
2,1,1,4,0.57619,0,109,1,1,849,667,1,16,29,1
2,1,1,1,1.5555,80,110,1,4,872,446,1,16,29,1
2,2,2,2,1.0012,60,111,1,6,1153,495,1,16,29,1
2,2,2,4,0.39735,35,112,1,8,1057,680,1,16,29,1
2,2,2,4,0.58663,45,113,1,8,1079,651,1,16,29,1
2,2,2,2,0.75735,90,114,1,6,1108,495,1,16,29,1
2,1,2,1,1.1091,90,115,0,5,1094,398,1,16,29,1
2,2,2,4,0.41586,0,116,1,8,1066,663,1,16,29,1
2,1,2,1,1.3744,90,117,0,5,1078,386,1,16,29,1
2,2,2,4,0.60551,0,118,1,8,1109,700,1,16,29,1
2,2,1,1,0.4874,90,119,0,4,834,402,1,16,29,1
2,1,1,4,0.8453,35,120,1,1,815,697,1,16,29,1
2,1,1,1,1.0808,60,121,1,4,833,401,1,16,29,1
2,1,1,1,1.4795,100,122,1,4,882,456,1,16,29,1
2,2,1,1,1.3129,60,123,0,4,892,446,1,16,29,1
2,1,1,1,1.0346,45,124,1,4,891,469,1,16,29,1
2,1,1,3,1.0664,35,125,1,2,831,567,1,16,29,1
2,2,2,3,0.52001,45,126,1,7,1161,613,1,16,29,1
2,1,1,4,0.32045,45,127,1,1,866,652,1,16,29,1
2,1,2,2,3.3948,70,128,0,6,1176,503,1,16,29,1
2,1,1,4,0.39354,35,129,1,1,819,673,1,16,29,1
2,1,1,2,0.67888,90,130,1,3,896,506,1,16,29,1
2,2,2,4,0.37304,0,131,1,8,1065,674,1,16,29,1
2,2,2,1,0.58341,70,132,1,5,1078,405,1,16,29,1
2,1,2,1,1.6981,60,133,0,5,1085,427,1,16,29,1
2,1,1,1,1.0913,80,134,1,4,899,440,1,16,29,1
2,2,1,1,0.88086,100,135,0,4,871,439,1,16,29,1
2,1,1,4,0.7805,0,136,1,1,832,707,1,16,29,1
2,1,1,4,0.9293,35,137,1,1,886,631,1,16,29,1
2,2,2,4,1.2766,60,138,1,8,1050,626,1,16,29,1
2,2,2,2,0.70968,60,139,1,6,1142,506,1,16,29,1
2,2,2,4,0.28135,45,140,1,8,1077,645,1,16,29,1
2,1,2,1,0.56537,100,141,0,5,1056,448,1,16,29,1
2,1,2,1,1.0848,100,142,0,5,1077,434,1,16,29,1
2,2,2,4,0.51689,35,143,1,8,1096,685,1,16,29,1
2,1,2,1,1.2332,80,144,0,5,1041,422,1,16,29,1
2,1,2,3,1.2257,70,145,0,7,1164,575,1,16,29,1
2,1,2,2,1.662,70,146,0,6,1168,473,1,16,29,1
2,2,2,2,1.2667,90,147,1,6,1120,513,1,16,29,1
2,1,1,2,0.6582,60,148,1,3,790,496,1,16,29,1
2,2,2,4,0.5271,45,149,1,8,1130,700,1,16,29,1
2,1,1,4,0.58621,70,150,1,1,855,637,1,16,29,1
2,2,2,4,0.49585,60,151,1,8,1123,702,1,16,29,1
2,2,2,3,1.1696,80,152,1,7,1081,608,1,16,29,1
2,2,2,4,0.45009,35,153,1,8,1111,677,1,16,29,1
2,1,1,2,0.89123,100,154,1,3,809,501,1,16,29,1
2,1,1,4,0.61968,45,155,1,1,827,689,1,16,29,1
2,2,1,2,0.69307,90,156,0,3,863,519,1,16,29,1
2,2,1,1,0.6395,90,157,0,4,907,480,1,16,29,1
2,1,1,1,1.0402,60,158,1,4,869,444,1,16,29,1
2,2,2,4,0.48851,35,159,1,8,1125,664,1,16,29,1
2,2,2,3,1.2623,60,160,1,7,1172,592,1,16,29,1
2,1,1,4,0.44325,45,161,1,1,865,648,1,16,29,1
2,1,1,4,0.63158,90,162,1,1,866,670,1,16,29,1
2,2,2,4,0.44431,45,163,1,8,1099,667,1,16,29,1
2,2,1,2,0.85408,80,164,0,3,852,501,1,16,29,1
2,2,2,2,0.87809,70,165,1,6,1165,508,1,16,29,1
2,2,2,2,0.72213,90,166,1,6,1234,492,1,16,29,1
2,1,2,2,1.1415,80,167,0,6,1138,502,1,16,29,1
2,2,2,1,0.68493,60,168,1,5,1062,426,1,16,29,1
2,1,1,4,0.47239,35,169,1,1,835,690,1,16,29,1
2,2,2,2,1.0859,100,170,1,6,1184,504,1,16,29,1
2,1,1,4,0.61066,0,171,1,1,820,710,1,16,29,1
2,1,1,4,0.52074,45,172,1,1,864,657,1,16,29,1
2,2,2,4,0.57417,35,173,1,8,1111,672,1,16,29,1
2,1,1,4,0.5012,35,174,1,1,842,660,1,16,29,1
2,1,1,4,0.57655,0,175,1,1,877,653,1,16,29,1
2,1,1,4,0.44061,60,176,1,1,866,662,1,16,29,1
2,1,1,4,0.56999,35,177,1,1,863,674,1,16,29,1
2,2,1,4,0.65267,35,178,0,1,879,649,1,16,29,1
2,2,1,3,1.0687,80,179,0,2,787,570,1,16,29,1
2,2,1,2,0.91119,80,180,0,3,836,489,1,16,29,1
2,2,2,2,0.86916,70,181,1,6,1106,499,1,16,29,1
2,2,2,4,0.7186,45,182,1,8,1144,683,1,16,29,1
2,1,1,2,0.789,80,183,1,3,847,515,1,16,29,1
2,1,1,4,0.48066,35,184,1,1,852,657,1,16,29,1
2,2,2,4,0.45944,80,185,1,8,1120,645,1,16,29,1
2,2,2,4,0.50507,45,186,1,8,1081,668,1,16,29,1
2,2,2,3,0.46344,45,187,1,7,1191,587,1,16,29,1
2,2,2,1,0.70215,100,188,1,5,1069,430,1,16,29,1
2,2,2,1,0.66619,60,189,1,5,1071,448,1,16,29,1
2,2,2,1,0.71897,70,190,1,5,1087,440,1,16,29,1
2,2,2,2,0.49027,70,191,1,6,1138,520,1,16,29,1
2,2,2,2,0.62068,90,192,1,6,1129,504,1,16,29,1
2,1,1,4,0.34327,0,193,1,1,856,656,1,16,29,1
2,2,2,4,0.47664,45,194,1,8,1081,693,1,16,29,1
2,1,1,1,0.51501,90,195,1,4,877,459,1,16,29,1
2,1,1,2,0.5804,100,196,1,3,803,520,1,16,29,1
2,1,1,2,0.75951,60,197,1,3,871,527,1,16,29,1
2,1,1,2,0.69848,70,198,1,3,858,517,1,16,29,1
2,1,1,2,0.8716,90,199,1,3,833,514,1,16,29,1
2,2,2,3,6.9817,35,200,1,6,1197,490,0,16,29,1
2,1,2,1,1.9456,60,201,0,8,1129,689,0,16,29,1
2,1,1,4,0.29527,0,202,1,4,852,395,0,16,29,1
2,2,2,2,0.64364,80,203,1,7,1116,626,0,16,29,1
2,2,2,2,1.092,90,204,1,7,1057,577,0,16,29,1
2,2,1,2,0.35737,90,205,0,2,865,578,0,16,29,1
2,1,1,1,0.62315,100,206,1,1,850,649,0,16,29,1
2,2,2,4,0.52811,35,207,1,5,1113,372,0,16,29,1
2,2,2,1,0.86856,90,208,1,8,1055,683,0,16,29,1
2,2,1,1,1.0079,80,209,0,1,871,640,0,16,29,1
2,2,2,4,0.40561,35,210,1,5,1083,427,0,16,29,1
2,2,2,3,0.6023,60,211,1,6,1096,513,0,16,29,1
2,1,2,4,0.3193,70,212,0,5,1116,379,0,16,29,1
2,1,1,3,0.91478,90,213,1,3,807,521,0,16,29,1
2,1,1,3,0.82444,90,214,1,3,869,513,0,16,29,1
2,1,1,2,0.91551,100,215,1,2,824,600,0,16,29,1
2,1,1,3,0.67185,90,216,1,3,852,512,0,16,29,1
2,2,2,3,0.52019,60,217,1,6,1166,496,0,16,29,1
2,2,1,3,0.67264,60,218,0,3,748,477,0,16,29,1
2,1,1,2,1.116,45,219,1,2,844,571,0,16,29,1
2,1,1,4,0.44834,0,220,1,4,877,434,0,16,29,1
2,2,2,4,0.56646,0,221,1,5,1113,414,0,16,29,1
2,2,1,3,0.73587,80,222,0,3,800,516,0,16,29,1
2,2,2,4,0.61454,70,223,1,5,1131,417,0,16,29,1
2,2,2,3,0.78424,80,224,1,6,1121,511,0,16,29,1
2,2,2,3,0.4489,70,225,1,6,1104,495,0,16,29,1
2,1,1,4,0.4309,0,226,1,4,856,419,0,16,29,1
2,1,1,4,0.77165,35,227,1,4,840,405,0,16,29,1
2,1,2,1,0.59706,100,228,0,8,1118,649,0,16,29,1
2,1,2,1,0.75945,60,229,0,8,1067,632,0,16,29,1
2,1,1,3,0.89245,45,230,1,3,805,500,0,16,29,1
2,1,2,2,0.48385,100,231,0,7,1209,613,0,16,29,1
2,1,1,4,0.46261,35,232,1,4,883,437,0,16,29,1
2,1,2,1,0.5993,100,233,0,8,1098,655,0,16,29,1
2,2,2,4,0.46633,45,234,1,5,1126,393,0,16,29,1
2,1,2,1,0.92567,70,235,0,8,1083,628,0,16,29,1
2,1,1,1,0.49606,70,236,1,1,859,644,0,16,29,1
2,2,2,1,0.71844,70,237,1,8,1120,656,0,16,29,1
2,1,2,1,1.3077,90,238,0,8,1065,660,0,16,29,1
2,1,1,2,1.3086,60,239,1,2,806,589,0,16,29,1
2,2,1,2,0.70126,90,240,0,2,825,591,0,16,29,1
2,2,1,1,1.1244,80,241,0,1,893,585,0,16,29,1
2,2,2,4,0.72368,45,242,1,5,1125,363,0,16,29,1
2,1,1,3,0.44375,90,243,1,3,779,489,0,16,29,1
2,1,1,3,0.64945,60,244,1,3,840,511,0,16,29,1
2,1,1,4,0.40448,0,245,1,4,877,428,0,16,29,1
2,2,2,3,0.63154,100,246,1,6,1090,507,0,16,29,1
2,2,2,2,1.0922,90,247,1,7,1135,552,0,16,29,1
2,1,2,1,1.0636,90,248,0,8,1093,648,0,16,29,1
2,2,2,1,0.92344,60,249,1,8,1081,638,0,16,29,1
2,1,1,2,0.66775,60,250,1,2,810,567,0,16,29,1
2,1,1,2,0.58012,90,251,1,2,798,583,0,16,29,1
2,1,1,4,0.85602,35,252,1,4,853,458,0,16,29,1
2,2,2,4,0.39982,45,253,1,5,1081,397,0,16,29,1
2,2,2,4,0.4019,35,254,1,5,1140,408,0,16,29,1
2,1,1,4,0.44695,0,255,1,4,852,438,0,16,29,1
2,1,2,2,1.0773,70,256,0,7,1082,601,0,16,29,1
2,1,1,2,0.51006,100,257,1,2,873,574,0,16,29,1
2,2,2,4,0.35274,45,258,1,5,1154,378,0,16,29,1
2,2,2,4,0.45779,45,259,1,5,1102,411,0,16,29,1
2,2,2,4,0.41258,45,260,1,5,1054,446,0,16,29,1
2,1,1,3,0.5172,80,261,1,3,837,476,0,16,29,1
2,2,1,2,0.89188,80,262,0,2,884,562,0,16,29,1
2,1,1,4,0.41925,70,263,1,4,900,463,0,16,29,1
2,1,1,4,0.49496,70,264,1,4,903,444,0,16,29,1
2,2,2,4,0.44938,70,265,1,5,1123,420,0,16,29,1
2,1,1,4,0.40741,35,266,1,4,893,432,0,16,29,1
2,2,1,2,0.50255,100,267,0,2,851,582,0,16,29,1
2,2,1,2,0.52642,100,268,0,2,885,569,0,16,29,1
2,2,1,3,0.50953,80,269,0,3,899,536,0,16,29,1
2,2,2,4,0.35128,35,270,1,5,1159,416,0,16,29,1
2,1,1,4,0.64762,35,271,1,4,872,461,0,16,29,1
2,2,2,4,0.41398,45,272,1,5,1080,430,0,16,29,1
2,1,2,2,0.87244,80,273,0,7,1088,593,0,16,29,1
2,1,1,4,0.42339,80,274,1,4,907,449,0,16,29,1
2,2,2,3,0.39744,45,275,1,6,1131,445,0,16,29,1
2,2,2,2,0.81973,70,276,1,7,1085,612,0,16,29,1
2,2,2,4,0.42709,0,277,1,5,1052,407,0,16,29,1
2,2,2,2,0.67552,90,278,1,7,1065,579,0,16,29,1
2,1,1,4,0.49158,80,279,1,4,860,424,0,16,29,1
2,1,2,2,0.51888,100,280,0,7,1102,574,0,16,29,1
2,1,1,2,0.52656,100,281,1,2,854,591,0,16,29,1
2,1,1,4,0.61665,60,282,1,4,885,465,0,16,29,1
2,1,1,4,0.49501,45,283,1,4,873,447,0,16,29,1
2,2,2,4,0.48874,80,284,1,5,1128,412,0,16,29,1
2,2,2,3,0.4804,90,285,1,6,1119,531,0,16,29,1
2,1,1,4,0.46938,0,286,1,4,886,437,0,16,29,1
2,1,1,3,0.49608,90,287,1,3,884,524,0,16,29,1
2,1,1,4,0.35146,0,288,1,4,875,461,0,16,29,1
2,1,1,4,0.43558,35,289,1,4,882,456,0,16,29,1
2,1,1,3,0.43653,80,290,1,3,846,520,0,16,29,1
2,1,1,4,0.38227,35,291,1,4,890,460,0,16,29,1
2,1,1,4,0.40027,80,292,1,4,868,477,0,16,29,1
2,1,1,4,0.4093,45,293,1,4,896,456,0,16,29,1
2,1,1,4,0.53802,80,294,1,4,902,491,0,16,29,1
2,1,1,3,0.46179,70,295,1,3,883,531,0,16,29,1
2,2,1,2,1.1147,90,296,0,2,870,576,0,16,29,1
2,1,1,3,0.41312,90,297,1,3,894,522,0,16,29,1
2,1,1,2,0.43017,90,298,1,2,873,564,0,16,29,1
2,2,2,3,0.44025,45,299,1,6,1120,498,0,16,29,1
2,2,2,2,0.79772,90,300,1,6,1122,511,1,16,29,1
2,2,2,3,1.1987,70,301,1,7,1111,574,1,16,29,1
2,1,1,3,0.54282,70,302,1,2,817,573,1,16,29,1
2,1,1,3,0.49225,45,303,1,2,784,593,1,16,29,1
2,1,1,3,1.0677,80,304,1,2,813,580,1,16,29,1
2,2,2,3,0.29627,60,305,1,7,1109,584,1,16,29,1
2,2,2,4,0.69666,60,306,1,8,1105,650,1,16,29,1
2,2,1,2,0.63231,80,307,0,3,823,501,1,16,29,1
2,2,2,3,0.463,60,308,1,7,1150,595,1,16,29,1
2,2,2,4,0.37414,0,309,1,8,1069,648,1,16,29,1
2,2,2,3,0.38916,90,310,1,7,1077,542,1,16,29,1
2,2,2,4,0.60943,0,311,1,8,1089,669,1,16,29,1
2,1,1,3,0.54224,90,312,1,2,809,572,1,16,29,1
2,2,1,2,1.058,90,313,0,3,846,521,1,16,29,1
2,2,2,4,0.43767,35,314,1,8,1129,657,1,16,29,1
2,1,1,4,0.39232,0,315,1,1,870,640,1,16,29,1
2,2,2,3,0.63608,70,316,1,7,1116,575,1,16,29,1
2,1,1,4,0.53008,0,317,1,1,849,660,1,16,29,1
2,1,1,4,0.42511,45,318,1,1,849,634,1,16,29,1
2,1,1,4,0.43508,60,319,1,1,877,628,1,16,29,1
2,1,1,4,0.40786,45,320,1,1,873,629,1,16,29,1
2,2,2,4,0.43082,0,321,1,8,1090,654,1,16,29,1
2,2,2,4,1.1025,60,322,1,8,1045,628,1,16,29,1
2,2,2,4,0.77591,70,323,1,8,1080,619,1,16,29,1
2,2,2,4,0.55099,0,324,1,8,1111,658,1,16,29,1
2,2,2,4,0.52235,0,325,1,8,1053,661,1,16,29,1
2,1,1,3,0.5124,100,326,1,2,862,559,1,16,29,1
2,1,1,4,0.37313,0,327,1,1,867,648,1,16,29,1
2,1,1,4,0.54344,70,328,1,1,883,634,1,16,29,1
2,1,1,4,0.46382,0,329,1,1,831,640,1,16,29,1
2,2,1,4,0.53321,90,330,0,1,865,642,1,16,29,1
2,2,1,3,0.70117,100,331,0,2,857,570,1,16,29,1
2,1,1,3,0.50228,80,332,1,2,820,586,1,16,29,1
2,1,1,4,0.45963,0,333,1,1,860,648,1,16,29,1
2,1,1,4,0.64232,60,334,1,1,848,643,1,16,29,1
2,2,1,3,0.43767,90,335,0,2,791,584,1,16,29,1
2,2,2,4,0.40542,45,336,1,8,1148,689,1,16,29,1
2,2,1,4,0.73445,100,337,0,1,914,576,1,16,29,1
2,1,1,3,1.1282,80,338,1,2,818,563,1,16,29,1
2,1,1,4,0.42853,35,339,1,1,837,657,1,16,29,1
2,2,2,4,0.58055,35,340,1,8,1084,653,1,16,29,1
2,2,1,2,0.72824,90,341,0,3,833,500,1,16,29,1
2,2,2,4,0.35933,45,342,1,8,1051,637,1,16,29,1
2,1,1,4,0.6953,90,343,1,1,892,628,1,16,29,1
2,2,2,4,0.46967,45,344,1,8,1064,639,1,16,29,1
2,2,2,2,0.83045,100,345,1,6,1127,475,1,16,29,1
2,2,2,2,0.89616,70,346,1,6,1124,490,1,16,29,1
2,1,1,2,0.47055,70,347,1,3,795,487,1,16,29,1
2,1,1,3,0.33391,70,348,1,2,854,571,1,16,29,1
2,2,2,2,0.79688,100,349,1,6,1151,516,1,16,29,1
2,2,2,4,0.4792,0,350,1,8,1098,707,1,16,29,1
2,2,2,2,0.94166,80,351,1,6,1147,487,1,16,29,1
2,2,2,4,0.73405,80,352,1,8,1104,670,1,16,29,1
2,1,1,4,0.41205,0,353,1,1,862,651,1,16,29,1
2,2,2,4,0.47776,35,354,1,8,1120,689,1,16,29,1
2,2,1,3,0.56276,90,355,0,2,850,561,1,16,29,1
2,1,1,4,0.46558,0,356,1,1,844,634,1,16,29,1
2,1,1,4,0.4502,0,357,1,1,860,654,1,16,29,1
2,1,1,3,0.40924,100,358,1,2,855,551,1,16,29,1
2,2,2,4,0.43798,45,359,1,8,1071,633,1,16,29,1
2,2,1,4,0.44197,90,360,0,1,874,618,1,16,29,1
2,2,2,4,0.51133,35,361,1,8,1078,634,1,16,29,1
2,2,2,4,0.53601,45,362,1,8,1106,696,1,16,29,1
2,1,1,4,0.36805,70,363,1,1,844,669,1,16,29,1
2,2,2,4,0.61142,45,364,1,8,1079,687,1,16,29,1
2,2,1,4,0.48445,80,365,0,1,876,631,1,16,29,1
2,1,1,4,0.31511,60,366,1,1,820,647,1,16,29,1
2,1,1,4,0.33355,35,367,1,1,834,652,1,16,29,1
2,1,1,4,0.40928,0,368,1,1,851,647,1,16,29,1
2,1,1,4,0.3013,0,369,1,1,864,640,1,16,29,1
2,2,1,3,1.4403,90,370,0,2,864,580,1,16,29,1
2,2,2,2,0.34703,70,371,1,6,1150,506,1,16,29,1
2,2,2,4,0.29239,35,372,1,8,1049,647,1,16,29,1
2,2,2,4,0.44776,60,373,1,8,1059,615,1,16,29,1
2,1,1,2,0.58281,80,374,1,3,828,494,1,16,29,1
2,2,2,4,0.39881,60,375,1,8,1061,651,1,16,29,1
2,2,2,4,0.45213,80,376,1,8,1073,630,1,16,29,1
2,2,2,4,0.76719,80,377,1,8,1017,602,1,16,29,1
2,1,1,4,0.33954,0,378,1,1,849,653,1,16,29,1
2,2,2,4,0.48824,0,379,1,8,1066,646,1,16,29,1
2,2,2,4,0.50389,0,380,1,8,1072,641,1,16,29,1
2,2,1,3,0.37398,100,381,0,2,858,566,1,16,29,1
2,1,1,3,0.65408,90,382,1,2,872,554,1,16,29,1
2,1,1,2,0.60638,60,383,1,3,858,517,1,16,29,1
2,1,1,1,0.45009,60,384,1,4,887,448,1,16,29,1
2,1,1,4,0.34744,45,385,1,1,843,665,1,16,29,1
2,2,2,4,0.44946,60,386,1,8,1086,666,1,16,29,1
2,2,1,3,0.89853,80,387,0,2,852,569,1,16,29,1
2,2,1,1,0.58062,70,388,0,4,847,440,1,16,29,1
2,1,1,4,0.26859,0,389,1,1,882,632,1,16,29,1
2,1,1,2,0.50197,80,390,1,3,814,489,1,16,29,1
2,2,2,4,0.38236,35,391,1,8,1059,636,1,16,29,1
2,2,2,1,0.64005,80,392,1,5,1091,422,1,16,29,1
2,2,2,4,0.40935,45,393,1,8,1069,668,1,16,29,1
2,2,1,1,0.71412,70,394,0,4,865,457,1,16,29,1
2,2,2,4,0.40677,0,395,1,8,1086,654,1,16,29,1
2,1,2,1,0.32247,90,396,0,5,1074,460,1,16,29,1
2,1,1,4,0.29182,35,397,1,1,876,628,1,16,29,1
2,2,2,4,0.59819,80,398,1,8,1059,643,1,16,29,1
2,1,1,3,0.42922,70,399,1,2,870,591,1,16,29,1
2,1,1,4,1.0852,45,400,1,4,800,418,0,16,29,1
2,2,2,4,0.42691,60,401,1,5,1078,423,0,16,29,1
2,1,1,4,0.49129,35,402,1,4,833,430,0,16,29,1
2,1,1,4,0.42164,60,403,1,4,860,444,0,16,29,1
2,2,2,4,0.46392,35,404,1,5,1101,376,0,16,29,1
2,2,2,4,0.36738,45,405,1,5,1086,430,0,16,29,1
2,2,2,4,0.33204,35,406,1,5,1080,392,0,16,29,1
2,1,1,3,0.55175,70,407,1,3,784,488,0,16,29,1
2,2,2,4,0.31711,0,408,1,5,1091,396,0,16,29,1
2,2,2,3,0.60748,100,409,1,6,1082,513,0,16,29,1
2,1,1,2,0.5702,100,410,1,2,792,591,0,16,29,1
2,2,2,1,0.42862,60,411,1,8,1033,626,0,16,29,1
2,2,2,2,0.39095,70,412,1,7,1099,583,0,16,29,1
2,2,2,4,0.3113,35,413,1,5,1083,418,0,16,29,1
2,1,2,2,0.39707,70,414,0,7,1119,603,0,16,29,1
2,1,1,4,0.34729,0,415,1,4,838,423,0,16,29,1
2,1,2,2,0.35234,100,416,0,7,1059,563,0,16,29,1
2,2,2,4,0.56648,0,417,1,5,1079,406,0,16,29,1
2,1,1,4,0.48514,35,418,1,4,813,454,0,16,29,1
2,1,1,2,0.55084,70,419,1,2,832,586,0,16,29,1
2,1,1,1,0.31816,60,420,1,1,852,641,0,16,29,1
2,2,2,1,0.38157,60,421,1,8,1059,649,0,16,29,1
2,1,1,1,0.55064,70,422,1,1,791,648,0,16,29,1
2,2,2,4,0.32567,0,423,1,5,1117,374,0,16,29,1
2,2,2,1,0.36798,70,424,1,8,1132,646,0,16,29,1
2,2,2,4,0.37232,0,425,1,5,1098,389,0,16,29,1
2,1,1,3,0.38279,60,426,1,3,847,476,0,16,29,1
2,2,2,4,0.34339,0,427,1,5,1115,376,0,16,29,1
2,2,1,1,0.88491,100,428,0,1,876,622,0,16,29,1
2,2,1,1,1.0428,60,429,0,1,901,631,0,16,29,1
2,1,1,3,0.76921,60,430,1,3,834,510,0,16,29,1
2,1,1,4,0.85366,35,431,1,4,862,420,0,16,29,1
2,2,2,3,0.97108,60,432,1,6,1131,519,0,16,29,1
2,1,1,2,0.44334,60,433,1,2,853,570,0,16,29,1
2,1,1,1,0.84473,100,434,1,1,887,610,0,16,29,1
2,1,1,4,0.32943,35,435,1,4,893,453,0,16,29,1
2,2,2,1,0.55949,100,436,1,8,1101,680,0,16,29,1
2,2,1,2,0.36219,100,437,0,2,838,559,0,16,29,1
2,1,1,4,0.38716,45,438,1,4,905,467,0,16,29,1
2,2,2,4,0.3609,35,439,1,5,1120,419,0,16,29,1
2,1,1,4,0.49285,35,440,1,4,856,423,0,16,29,1
2,1,2,1,0.63632,60,441,0,8,1076,640,0,16,29,1
2,1,1,2,0.56099,100,442,1,2,878,561,0,16,29,1
2,2,2,4,0.35272,45,443,1,5,1124,410,0,16,29,1
2,1,2,1,0.93906,100,444,0,8,1089,657,0,16,29,1
2,1,1,4,0.34675,0,445,1,4,820,421,0,16,29,1
2,1,2,1,0.86444,100,446,0,8,1088,680,0,16,29,1
2,2,1,2,0.65281,100,447,0,2,855,569,0,16,29,1
2,1,1,3,0.59986,80,448,1,3,880,532,0,16,29,1
2,2,2,4,0.36297,35,449,1,5,1108,394,0,16,29,1
2,1,1,2,0.56393,60,450,1,2,851,555,0,16,29,1
2,1,1,1,0.56026,90,451,1,1,890,611,0,16,29,1
2,2,2,4,0.32527,35,452,1,5,1122,386,0,16,29,1
2,2,2,4,0.38138,0,453,1,5,1105,394,0,16,29,1
2,2,2,4,0.33538,0,454,1,5,1090,410,0,16,29,1
2,2,2,4,0.39109,0,455,1,5,1099,395,0,16,29,1
2,1,1,2,0.60644,90,456,1,2,817,563,0,16,29,1
2,1,1,4,0.26816,35,457,1,4,891,456,0,16,29,1
2,1,1,2,0.29782,80,458,1,2,867,574,0,16,29,1
2,2,1,1,0.33286,90,459,0,1,875,615,0,16,29,1
2,2,1,2,0.39994,90,460,0,2,860,597,0,16,29,1
2,1,1,4,0.28392,35,461,1,4,842,458,0,16,29,1
2,2,1,1,0.29562,100,462,0,1,861,604,0,16,29,1
2,2,1,4,0.45108,80,463,0,4,814,444,0,16,29,1
2,2,1,1,0.69941,100,464,0,1,862,661,0,16,29,1
2,1,1,1,0.64543,100,465,1,1,892,605,0,16,29,1
2,2,2,4,0.68008,60,466,1,5,1121,438,0,16,29,1
2,1,2,1,0.46415,100,467,0,8,1047,638,0,16,29,1
2,1,1,4,0.30486,0,468,1,4,867,428,0,16,29,1
2,2,2,2,0.63993,80,469,1,7,1069,576,0,16,29,1
2,1,1,2,0.49763,80,470,1,2,821,570,0,16,29,1
2,1,1,4,0.3196,45,471,1,4,863,453,0,16,29,1
2,2,1,1,0.53931,70,472,0,1,830,669,0,16,29,1
2,2,1,1,0.35166,100,473,0,1,865,639,0,16,29,1
2,2,1,1,0.60473,60,474,0,1,875,592,0,16,29,1
2,1,1,2,0.4481,60,475,1,2,883,553,0,16,29,1
2,2,2,4,0.33216,0,476,1,5,1063,416,0,16,29,1
2,1,2,1,0.54182,100,477,0,8,1048,591,0,16,29,1
2,1,1,3,0.31853,70,478,1,3,873,492,0,16,29,1
2,2,2,4,0.29791,45,479,1,5,1108,407,0,16,29,1
2,2,2,4,0.33425,60,480,1,5,1101,398,0,16,29,1
2,2,2,4,0.40193,35,481,1,5,1130,423,0,16,29,1
2,2,2,1,0.45998,100,482,1,8,1048,632,0,16,29,1
2,1,2,1,0.67777,100,483,0,8,1028,600,0,16,29,1
2,2,2,4,0.33693,35,484,1,5,1096,367,0,16,29,1
2,2,2,4,0.33564,60,485,1,5,1079,368,0,16,29,1
2,1,1,2,0.52977,80,486,1,2,894,572,0,16,29,1
2,1,1,2,0.37075,80,487,1,2,828,579,0,16,29,1
2,1,1,2,0.64893,60,488,1,2,842,593,0,16,29,1
2,2,1,1,0.38011,90,489,0,1,918,604,0,16,29,1
2,2,1,2,0.91153,80,490,0,2,873,558,0,16,29,1
2,2,2,4,0.31542,35,491,1,5,1089,418,0,16,29,1
2,2,2,1,0.46621,90,492,1,8,1065,612,0,16,29,1
2,1,2,2,0.47853,70,493,0,7,1093,588,0,16,29,1
2,1,1,3,0.61755,45,494,1,3,823,493,0,16,29,1
2,2,2,1,0.47803,90,495,1,8,1056,604,0,16,29,1
2,1,2,1,0.89227,90,496,0,8,1003,585,0,16,29,1
2,1,2,1,0.7117,80,497,0,8,1141,709,0,16,29,1
2,2,2,1,0.64176,70,498,1,8,1028,612,0,16,29,1
2,2,2,2,0.53014,60,499,1,7,1166,549,0,16,29,1
2,1,1,1,1.7084,60,500,1,4,852,424,1,16,29,1
2,1,1,4,0.47232,35,501,1,1,904,627,1,16,29,1
2,2,1,1,0.43739,90,502,0,4,874,408,1,16,29,1
2,2,1,1,0.78109,80,503,0,4,862,445,1,16,29,1
2,1,1,3,0.64678,45,504,1,2,784,582,1,16,29,1
2,2,1,3,0.64622,70,505,0,2,829,587,1,16,29,1
2,2,1,2,1.0176,60,506,0,3,853,491,1,16,29,1
2,1,1,4,0.37627,45,507,1,1,828,683,1,16,29,1
2,2,1,3,0.49828,70,508,0,2,911,557,1,16,29,1
2,2,1,3,0.56364,100,509,0,2,843,580,1,16,29,1
2,1,1,3,0.54035,70,510,1,2,796,580,1,16,29,1
2,1,1,2,0.91274,90,511,1,3,767,482,1,16,29,1
2,2,1,2,0.81448,100,512,0,3,849,517,1,16,29,1
2,2,1,1,1.299,80,513,0,4,866,469,1,16,29,1
2,1,1,1,0.75025,70,514,1,4,835,447,1,16,29,1
2,2,1,1,1.0595,80,515,0,4,814,404,1,16,29,1
2,2,2,1,0.74327,90,516,1,5,1086,396,1,16,29,1
2,2,2,4,0.43193,35,517,1,8,1127,671,1,16,29,1
2,1,1,4,0.37061,35,518,1,1,857,655,1,16,29,1
2,2,2,4,0.38796,60,519,1,8,1117,691,1,16,29,1
2,1,1,3,0.77908,90,520,1,2,853,545,1,16,29,1
2,1,1,4,0.46316,0,521,1,1,842,676,1,16,29,1
2,1,1,2,1.0658,70,522,1,3,868,530,1,16,29,1
2,1,1,4,0.39049,60,523,1,1,843,652,1,16,29,1
2,2,2,4,0.25783,70,524,1,8,1087,653,1,16,29,1
2,1,1,4,0.49551,90,525,1,1,885,623,1,16,29,1
2,2,2,3,0.69693,60,526,1,7,1088,582,1,16,29,1
2,2,2,4,0.4233,35,527,1,8,1055,651,1,16,29,1
2,2,2,4,0.53037,70,528,1,8,1050,628,1,16,29,1
2,1,1,4,0.32739,45,529,1,1,861,629,1,16,29,1
2,2,2,4,0.41428,0,530,1,8,1095,692,1,16,29,1
2,2,2,4,0.36478,35,531,1,8,1130,687,1,16,29,1
2,1,1,4,0.40814,70,532,1,1,887,615,1,16,29,1
2,1,2,2,0.64711,70,533,0,6,1093,498,1,16,29,1
2,1,1,4,0.34415,0,534,1,1,869,639,1,16,29,1
2,1,1,4,0.89142,0,535,1,1,879,601,1,16,29,1
2,1,1,4,0.43893,45,536,1,1,883,661,1,16,29,1
2,1,1,4,0.38557,35,537,1,1,887,643,1,16,29,1
2,1,1,4,0.39733,0,538,1,1,882,620,1,16,29,1
2,2,1,2,0.60164,100,539,0,3,885,523,1,16,29,1
2,2,2,4,0.4567,70,540,1,8,1101,643,1,16,29,1
2,2,2,4,0.4437,0,541,1,8,1048,637,1,16,29,1
2,2,1,2,2.0001,70,542,0,3,881,504,1,16,29,1
2,1,2,2,0.32913,80,543,0,6,1065,494,1,16,29,1
2,2,2,3,0.45118,100,544,1,7,1046,551,1,16,29,1
2,1,2,2,0.3252,90,545,0,6,1110,498,1,16,29,1
2,1,1,2,0.69622,70,546,1,3,898,523,1,16,29,1
2,2,2,2,0.46996,80,547,1,6,1097,502,1,16,29,1
2,2,2,4,0.58232,60,548,1,8,1073,643,1,16,29,1
2,1,1,4,0.44399,0,549,1,1,850,666,1,16,29,1
2,2,2,4,0.50039,0,550,1,8,1045,626,1,16,29,1
2,1,1,3,0.45245,80,551,1,2,858,557,1,16,29,1
2,2,2,4,0.79075,70,552,1,8,1099,649,1,16,29,1
2,2,2,2,0.67322,80,553,1,6,1053,534,1,16,29,1
2,2,2,3,0.55951,80,554,1,7,1121,552,1,16,29,1
2,2,2,4,0.40416,0,555,1,8,1092,674,1,16,29,1
2,2,2,3,0.55426,70,556,1,7,1060,570,1,16,29,1
2,2,2,4,0.45261,70,557,1,8,1041,648,1,16,29,1
2,2,2,4,0.37365,45,558,1,8,1061,654,1,16,29,1
2,1,1,3,0.63698,90,559,1,2,843,580,1,16,29,1
2,1,1,3,0.45704,80,560,1,2,879,571,1,16,29,1
2,2,2,4,0.35904,0,561,1,8,1102,675,1,16,29,1
2,2,2,3,0.41176,90,562,1,7,1080,558,1,16,29,1
2,2,2,4,0.39535,0,563,1,8,1149,691,1,16,29,1
2,1,2,3,0.58788,70,564,0,7,1053,569,1,16,29,1
2,2,1,2,0.73591,90,565,0,3,887,525,1,16,29,1
2,2,2,3,0.5156,70,566,1,7,1114,566,1,16,29,1
2,2,1,2,0.28902,80,567,0,3,855,480,1,16,29,1
2,2,2,2,0.63864,80,568,1,6,1130,490,1,16,29,1
2,2,2,4,0.45032,35,569,1,8,1041,625,1,16,29,1
2,1,1,3,0.52641,80,570,1,2,835,582,1,16,29,1
2,1,1,4,0.40573,70,571,1,1,883,639,1,16,29,1
2,2,2,4,0.43831,35,572,1,8,1109,690,1,16,29,1
2,1,1,4,0.37741,35,573,1,1,835,663,1,16,29,1
2,2,2,4,0.40754,0,574,1,8,1086,681,1,16,29,1
2,2,2,4,0.47319,45,575,1,8,1097,658,1,16,29,1
2,1,1,4,0.80815,60,576,1,1,863,659,1,16,29,1
2,1,1,4,0.30927,90,577,1,1,898,583,1,16,29,1
2,1,1,4,0.29695,45,578,1,1,886,604,1,16,29,1
2,2,1,3,0.59258,100,579,0,2,895,550,1,16,29,1
2,2,1,2,0.628,80,580,0,3,846,513,1,16,29,1
2,1,1,4,0.45596,45,581,1,1,867,646,1,16,29,1
2,1,1,4,0.4338,80,582,1,1,905,592,1,16,29,1
2,2,2,4,0.4261,100,583,1,8,1083,669,1,16,29,1
2,2,2,2,0.62014,60,584,1,6,1098,491,1,16,29,1
2,2,1,2,0.62884,70,585,0,3,791,501,1,16,29,1
2,1,1,3,0.81281,80,586,1,2,843,599,1,16,29,1
2,1,1,4,0.44686,0,587,1,1,896,640,1,16,29,1
2,1,1,4,0.2932,45,588,1,1,885,601,1,16,29,1
2,1,1,2,0.50463,90,589,1,3,875,513,1,16,29,1
2,1,1,4,0.38669,45,590,1,1,851,641,1,16,29,1
2,2,2,4,0.30866,0,591,1,8,1099,652,1,16,29,1
2,1,1,4,0.38736,45,592,1,1,883,593,1,16,29,1
2,2,2,4,0.4634,0,593,1,8,1081,650,1,16,29,1
2,1,1,4,0.64908,35,594,1,1,858,673,1,16,29,1
2,1,1,4,0.43224,0,595,1,1,864,642,1,16,29,1
2,2,2,2,0.46282,100,596,1,6,1128,497,1,16,29,1
2,1,1,4,0.3708,35,597,1,1,888,628,1,16,29,1
2,2,1,2,0.47528,80,598,0,3,821,508,1,16,29,1
2,1,1,2,0.47527,70,599,1,3,862,521,1,16,29,1
2,1,1,2,0.97733,100,600,1,2,795,555,0,16,29,1
2,2,2,4,0.46585,90,601,1,5,1099,399,0,16,29,1
2,2,2,4,0.33513,70,602,1,5,1074,442,0,16,29,1
2,1,1,3,0.47686,70,603,1,3,774,462,0,16,29,1
2,1,1,3,0.32793,70,604,1,3,807,498,0,16,29,1
2,1,1,4,0.44625,0,605,1,4,853,424,0,16,29,1
2,1,1,4,0.488,35,606,1,4,840,456,0,16,29,1
2,2,1,2,0.50905,100,607,0,2,776,543,0,16,29,1
2,1,1,4,0.44675,0,608,1,4,873,427,0,16,29,1
2,1,1,4,0.3691,35,609,1,4,832,430,0,16,29,1
2,2,2,4,0.51083,45,610,1,5,1089,420,0,16,29,1
2,1,1,3,0.39851,90,611,1,3,795,502,0,16,29,1
2,2,1,3,0.54355,45,612,0,3,778,526,0,16,29,1
2,2,2,4,0.36168,60,613,1,5,1122,407,0,16,29,1
2,1,1,4,0.41867,45,614,1,4,823,427,0,16,29,1
2,1,1,3,0.32068,70,615,1,3,839,510,0,16,29,1
2,1,1,4,0.36569,35,616,1,4,884,448,0,16,29,1
2,1,1,3,0.37609,100,617,1,3,793,505,0,16,29,1
